Time,Acc-X,Acc-Y,Acc-Z,Gyro-X,Gyro-Y,Gyro-Z,Ambient Temp
45:57.5,0.07182605,1.089361755,9.416395129,-44.09160305,-41.91603053,82.58015267,23.43
45:57.6,-0.509964954,1.173158813,9.466673364,-0.824427481,-1.496183206,0.564885496,23.43
45:57.8,-0.550666382,1.189918225,9.394847314,-0.93129771,-1.824427481,0.358778626,23.43
45:57.9,-0.524330164,1.163582007,9.387664709,-1.015267176,-1.824427481,0.229007634,23.45
45:58.0,-0.497993945,1.173158813,9.658209497,-0.618320611,-2.06870229,0.358778626,23.41
45:58.2,-0.588973608,1.170764612,9.502586389,-1.450381679,-1.06870229,0.335877863,23.45
45:58.3,-0.50517655,1.09654436,9.514557397,-1.183206107,-1.557251908,0.167938931,23.43
45:58.4,-0.251391174,1.122880579,9.514557397,-0.954198473,-2.328244275,-0.129770992,23.49
45:58.6,-0.553060583,1.242590662,9.533711011,-1.099236641,-1.236641221,0.595419847,23.43
45:58.7,-0.543483777,1.331176123,9.531316809,-1.236641221,-1.480916031,0.229007634,23.43
45:58.8,-0.545877979,1.142034192,9.502586389,-1.083969466,-1.335877863,0.595419847,23.43
45:59.0,-0.596156213,1.142034192,9.576806641,-1.816793893,-0.480916031,0.122137405,23.43
45:59.1,-0.557848987,1.194706628,9.507374792,-1.519083969,-1.65648855,0.526717557,23.43
45:59.2,-0.541089575,1.165976208,9.509768994,-1.175572519,-1.282442748,0.045801527,23.43
45:59.4,-0.495599744,1.192312427,9.490615381,-1.007633588,-1.809160305,0.465648855,23.45
45:59.5,-0.545877979,1.115697974,9.375693701,-1.519083969,-1.259541985,0.122137405,23.43
45:59.6,-0.502782349,1.086967554,9.622296472,-0.458015267,-2.061068702,0.221374046,23.43
45:59.8,-0.438138904,1.244984863,9.617508069,-1.740458015,-1.190839695,0.366412214,23.45
45:59.9,-0.596156213,1.127668982,9.651026892,-1.175572519,-1.435114504,0.282442748,23.43
46:00.0,-0.514753357,1.137245789,9.555258826,-1.427480916,-1.79389313,0,23.45
46:00.2,-0.483628735,1.134851587,9.526528406,-0.305343511,-0.809160305,0.13740458,23.45
46:00.3,-0.337582434,1.142034192,9.3732995,-3.34351145,-3.702290076,2.229007634,23.41
46:00.4,-0.15801731,1.359906543,9.761160168,-1.458015267,-3.885496183,-2.893129771,23.43
46:00.6,-0.50517655,0.723048901,9.452308154,-3.442748092,-0.58778626,-1.160305344,23.45
46:00.7,-0.023942017,1.271321082,9.421183533,-4.519083969,3.763358779,-1.770992366,23.49
46:00.8,-0.421379492,1.163582007,9.670180505,-0.183206107,4.79389313,-3.076335878,23.43
46:00.9,-0.517147559,1.26892688,9.536105212,-0.86259542,0.282442748,0.564885496,23.45
46:01.1,-0.636857642,1.077390747,9.411606726,-1.679389313,-1.038167939,0.236641221,23.43
46:01.2,-0.624886633,1.1540052,9.524134204,-0.770992366,-1.572519084,0.473282443,23.45
46:01.3,-0.59136781,1.185129822,9.497797986,-1.442748092,-0.72519084,0.328244275,23.43
46:01.5,-0.579396802,1.1540052,9.435548743,-1.251908397,-2.083969466,-0.190839695,23.43
46:01.6,-0.584185205,1.149216797,9.610325464,-1.27480916,-0.938931298,0.145038168,23.45
46:01.8,-0.514753357,1.194706628,9.502586389,-1.175572519,-1.885496183,0.244274809,23.49
46:01.9,-0.644040247,1.192312427,9.469067566,-1.259541985,-1.312977099,0.251908397,23.43
46:02.0,-0.758961926,1.173158813,9.449913953,-0.832061069,-2.198473282,0.305343511,23.45
46:02.1,-0.744596716,1.156399402,9.526528406,-0.694656489,-2.015267176,0.427480916,23.45
46:02.3,-0.658405457,1.158793604,9.488221179,-1.167938931,-1.335877863,0.061068702,23.43
46:02.4,-0.543483777,1.244984863,9.583989246,-0.671755725,-1.625954198,0.335877863,23.45
46:02.6,-0.651222852,1.180341418,9.356540088,-1.549618321,-2.213740458,0.213740458,23.49
46:02.8,-0.481234534,1.161187805,9.516951599,-0.778625954,-1.488549618,0.541984733,23.45
46:02.9,-0.411802686,1.173158813,9.497797986,-2.442748092,-0.732824427,0.778625954,23.45
46:03.0,-0.842758984,1.005564697,9.739612354,-1.541984733,-15.06870229,-0.030534351,23.49
46:03.2,-0.897825623,0.912190833,9.598354456,-9.030534351,-1.030534351,1.870229008,23.45
46:03.3,-0.268150586,0.931344446,9.464279163,-1.664122137,-5.618320611,-2.145038168,23.49
46:03.4,-0.383072266,0.849941589,9.346963281,1.190839695,-0.427480916,-0.183206107,23.45
46:03.6,-0.411802686,0.902614026,9.509768994,-1.145038168,-1.473282443,-0.167938931,23.45
46:03.7,-0.392649072,1.137245789,9.593566052,0.145038168,-6.954198473,0.305343511,23.49
46:03.8,0.179565125,0.797269153,9.624690674,-0.13740458,-2.221374046,-1.900763359,23.45
46:04.0,0.107739075,0.969651672,9.624690674,1.122137405,1.519083969,3.34351145,23.49
46:04.1,-0.260967981,0.936132849,9.514557397,1.083969466,2.664122137,-0.312977099,23.45
46:04.2,-0.232237561,1.098938562,9.710881934,-3.160305344,-1.251908397,0.122137405,23.49
46:04.4,-0.555454785,1.055842932,9.299079248,-2.740458015,-9.801526718,-1.671755725,23.45
46:04.5,0.05746084,0.794874951,9.574412439,-7.175572519,-8.809160305,0.664122137,23.49
46:04.6,-0.134075293,0.612915625,9.34456908,-4.839694656,-8.618320611,-5.297709924,23.51
46:04.8,0.646434448,0.730231506,9.722852942,-3.374045802,-1.41221374,0.72519084,23.49
46:04.9,1.003170496,0.732625708,9.378087903,4.396946565,16.61832061,4.854961832,23.49
46:05.0,-1.826775867,1.230619653,9.646238489,7.877862595,14.39694656,5.603053435,23.49
46:05.2,-0.596156213,1.151610999,9.449913953,-2.603053435,-1.022900763,1.786259542,23.49
46:05.3,-0.632069238,0.955286462,9.318232861,1.389312977,-3.374045802,-0.167938931,23.49
46:05.4,-0.636857642,1.144428394,9.595960254,-1.916030534,-1.450381679,-0.79389313,23.49
46:05.6,-0.299275208,1.094150159,9.464279163,-0.282442748,-2.664122137,-0.694656489,23.49
46:05.7,-0.646434448,1.149216797,9.282319836,-0.389312977,1.79389313,-0.763358779,23.49
46:05.8,-0.256179578,1.292868896,9.639055884,-0.687022901,-1.610687023,0.450381679,23.51
49:21.7,-0.682347473,1.170764612,9.449913953,-1.854961832,0.572519084,-0.458015267,23.49
49:21.8,-0.411802686,1.455674609,9.583989246,-0.335877863,-0.122137405,-0.526717557,23.51
49:22.0,-0.454898315,1.381454358,9.540893616,-0.442748092,0.282442748,0.534351145,23.49
49:22.1,-0.469263525,1.237802258,9.504980591,-0.435114504,0.290076336,3.954198473,23.49
49:22.2,-0.49081134,1.264138477,9.653421094,-0.465648855,-0.977099237,0.480916031,23.49
49:22.4,-0.517147559,1.31202251,9.337386475,-1.366412214,-1.015267176,-0.435114504,23.49
49:22.5,-0.761356128,1.201889233,9.469067566,-1.152671756,-1.641221374,-0.694656489,23.49
49:22.6,-0.486022937,1.300051501,9.483432776,-0.885496183,-2.190839695,0.061068702,23.51
49:22.8,-0.603338818,1.276109485,9.619902271,-1.282442748,-2.183206107,-0.519083969,23.53
49:22.9,-1.041477722,1.292868896,9.275137231,-0.450381679,-9.442748092,-3,23.51
49:23.0,-0.251391174,1.046266125,9.399635718,-1.061068702,-2.465648855,1.328244275,23.49
49:23.2,0.51954176,1.000776294,10.37647,-5.435114504,49.61832061,6.984732824,23.49
49:23.3,-1.323993518,0.869095203,8.520963708,-15.19847328,17.75572519,9.06870229,23.51
49:23.4,-2.444479895,1.24019646,9.84974563,9.190839695,-16.30534351,-3.480916031,23.53
49:23.6,-1.173158813,1.24019646,9.574412439,-11.83206107,6.900763359,0.190839695,23.51
49:23.7,-2.054225024,0.636857642,8.444349255,6.419847328,-14.04580153,-5.961832061,23.51
49:23.8,-0.684741675,1.08217915,9.081206897,8.832061069,-21.16793893,0.480916031,23.49
49:24.0,-0.787692346,1.508347046,9.624690674,4.145038168,-10.10687023,-1.511450382,23.51
49:24.1,-0.938527051,1.177947217,9.078812695,1.251908397,14.70992366,-1.511450382,23.51
49:24.2,-1.446097803,1.812410657,9.646238489,-5.854961832,-0.099236641,5.450381679,23.49
49:24.4,-1.561019482,1.522712256,9.311050256,0.007633588,0.824427481,-4.480916031,23.49
49:24.5,-1.661575952,1.580173096,9.239224207,-0.679389313,-6.122137405,-6.015267176,23.53
49:24.6,-1.467645618,1.185129822,9.414000928,-1.160305344,-2.312977099,-10.52671756,23.51
49:24.8,-3.579331482,0.646434448,9.095572107,-2.72519084,7.809160305,13.45038168,23.53
49:24.9,-2.92810863,1.584961499,9.279925635,-3.65648855,-6.854961832,-2.969465649,23.49
49:25.0,-2.169146704,0.931344446,9.234435803,-2.20610687,9.244274809,-3.687022901,23.49
49:25.2,-1.127668982,1.735796204,9.248801013,3.030534351,20.58015267,7.984732824,23.55
49:25.3,-2.231395947,1.364694946,9.097966309,-0.625954198,10.64885496,9.984732824,23.53
49:25.4,-2.712630481,1.541865869,9.050082275,1.122137405,5.488549618,-5.519083969,23.51
49:25.6,-1.764526624,1.520318054,9.121908325,0.076335878,-0.259541985,-9.717557252,23.53
49:25.7,-3.081337537,1.594538306,8.757989673,-2.984732824,0.213740458,-5.251908397,23.51
49:25.8,-2.513911743,1.060631335,9.069235889,0.427480916,-23.03816794,-12.83969466,23.53
49:26.0,-2.047042419,1.1540052,9.351751685,-6,-6.511450382,-3.740458015,23.55
49:26.1,-0.845153186,0.488417139,9.354145886,-3.473282443,-5.335877863,4.419847328,23.53
49:26.2,-1.570596289,1.223437048,9.260772021,-0.404580153,-9.687022901,-1.442748092,23.55
49:26.3,-1.391031165,1.031900916,9.31583866,-4.038167939,-14.06870229,-2.129770992,23.53
49:26.5,-0.205901343,0.746990918,9.73482395,1.717557252,40.93129771,-5.763358779,23.55
49:26.6,-0.347159241,0.888248816,9.385270508,-5.389312977,-31.96946565,11.28244275,23.53
49:26.7,-0.955286462,1.189918225,9.361328491,-3.732824427,-4.93129771,8.900763359,23.55
49:26.9,-1.740584607,1.395819568,9.193734375,0.480916031,1.396946565,-20.46564885,23.55
49:27.0,-1.460463013,1.314416711,9.493009583,2.648854962,-7.671755725,-16.59541985,23.55
49:27.1,-0.644040247,1.221042847,9.239224207,-3.213740458,-17.15267176,-6.847328244,23.53
49:27.3,0.141257898,0.993593689,9.378087903,-2.053435115,-7.038167939,10.30534351,23.57
49:27.4,-2.164358301,0.612915625,9.473855969,-4.358778626,-5.41221374,-1.099236641,23.53
49:27.5,6.121973645,2.00394679,9.696516724,14.29770992,-2.908396947,19.07633588,23.55
49:27.7,-1.709459985,1.027112512,8.949525806,-10.23664122,-4.969465649,41.42748092,23.55
49:27.8,-0.919373438,1.21146604,9.708487732,3.06870229,12.97709924,14.78625954,23.57
49:27.9,-1.187524023,1.031900916,8.583212952,-3.061068702,-0.679389313,23.09160305,23.55
49:28.1,-0.371101257,1.144428394,9.773131177,0.038167939,-5.41221374,0.709923664,23.55
49:28.2,-0.543483777,1.012747302,9.555258826,-2.847328244,4.648854962,2.916030534,23.57
49:28.3,-0.440533105,0.962469067,9.380482104,-1.786259542,0.641221374,1.595419847,23.57
49:28.4,-0.770932935,0.972045874,9.548076221,-3.335877863,9.694656489,6.847328244,23.59
49:28.5,-1.010353101,1.156399402,9.368511096,2.381679389,-5.045801527,0.923664122,23.55
49:28.7,-0.584185205,1.05344873,9.574412439,-0.076335878,-2.473282443,0.435114504,23.55
49:28.8,-0.742202515,1.206677637,9.514557397,-1,-0.091603053,0.358778626,23.57
49:28.9,-0.77811554,1.084573352,9.473855969,-0.20610687,-4.282442748,0.106870229,23.55
49:29.0,-0.866701001,1.09654436,9.500192188,1.740458015,-2.79389313,-0.93129771,23.55
49:29.1,-0.653617053,1.35511814,9.567229834,0.778625954,-5.198473282,-1.061068702,23.59
49:29.3,-0.59136781,1.237802258,9.775525378,-2.328244275,-0.687022901,1.419847328,23.57
49:29.4,-0.610521423,1.108515369,9.703699329,-4.870229008,-16.92366412,-2.458015267,23.55
49:29.5,-0.191536133,0.964863269,9.327809668,-5.007633588,6.022900763,0.045801527,23.57
49:29.6,-0.694318481,0.998382092,9.354145886,8.580152672,5.541984733,2.282442748,23.57
49:29.7,-0.354341846,1.438915198,9.69172832,0.641221374,-17.7480916,-1.854961832,23.57
49:29.9,0.452504114,1.065419739,9.277531433,5.885496183,-1.259541985,10.46564885,23.57
49:30.0,-0.11492168,0.945709656,9.121908325,6.404580153,-25.39694656,16.83969466,23.57
49:30.1,0.833182178,2.085349646,11.23119999,5.198473282,-120.0534351,32,23.57
49:30.2,3.50511123,2.760514514,10.22563529,44,3.534351145,-7.816793893,23.57
49:30.3,1.438915198,3.213018628,9.323021265,26.42748092,8.007633588,-24.4351145,23.59
49:30.5,1.482010828,3.117250562,7.936778503,48.64122137,41.47328244,-15.53435115,23.57
49:30.6,0.526724365,5.286397266,7.180210779,87.96946565,37.50381679,14.22137405,23.59
49:30.7,0.229843359,7.378929517,6.631938599,107.4351145,8.870229008,30.15267176,23.57
49:30.8,0.986411084,8.286331946,5.657498523,52.67175573,-0.709923664,32.95419847,23.57
49:30.9,0.67755907,7.632714893,5.781997009,7.06870229,33.52671756,-5.160305344,23.59
49:31.1,0.79248075,7.955932117,6.133944653,-31.21374046,15.90839695,-41.40458015,23.59
49:31.2,1.19710083,6.938396411,5.161898779,-34.77862595,-3.900763359,-26.89312977,23.59
49:31.3,0.380678064,5.765237598,5.0469771,-0.305343511,39.72519084,-6.702290076,23.59
49:31.4,-1.063025537,6.505045911,5.940014319,14.97709924,30.44274809,22.85496183,23.59
49:31.5,-1.453280408,7.359775903,6.708553052,-1.641221374,0.854961832,18.35877863,23.61
49:31.7,-1.441309399,6.995857251,6.239289526,-10.58778626,13.06870229,6.175572519,23.59
49:31.8,-1.292868896,7.560888843,6.076483813,-4.709923664,-5.282442748,4.923664122,23.57
49:31.9,-1.486799231,7.156268762,5.937620117,-1.778625954,-4.977099237,-1.13740458,23.59
49:32.0,-1.26892688,7.489062793,5.741295581,-9.229007634,3.595419847,-4.755725191,23.57
49:32.1,-1.098938562,7.424419348,5.908889697,0.442748092,1.786259542,-9.320610687,23.59
49:32.3,-0.866701001,7.151480359,6.284779358,1.038167939,-10.24427481,-8.801526718,23.59
49:32.4,-1.12527478,7.620743884,6.411672046,-7.198473282,-10.83206107,-7.030534351,23.59
49:32.5,-1.048660327,7.101202124,6.002263562,-9.519083969,8.65648855,-6.145038168,23.57
49:32.6,-1.637633936,6.622361792,5.837063647,2.450381679,19.49618321,-9.801526718,23.61
49:32.7,-2.185906116,7.671022119,6.358999609,4.129770992,-20.74045802,-8.519083969,23.61
49:32.9,-1.098938562,7.137115149,5.777208606,-7.450381679,-10.1221374,-7.603053435,23.59
49:33.0,-1.527500659,7.005434058,5.846640454,-8.801526718,18.08396947,-2.687022901,23.59
49:33.1,-2.288856787,7.24006582,6.210559106,2.908396947,14.15267176,8.488549618,23.55
49:33.2,-2.37983645,7.967903125,6.500257507,0.465648855,-17.96183206,4.450381679,23.57
49:33.3,-1.596932507,6.469132886,5.671863733,-4.72519084,14.64122137,10.71755725,23.61
49:33.5,-2.389413257,6.627150195,6.126762048,9.687022901,1.183206107,9.091603053,23.57
49:33.6,-1.905784521,7.220912207,6.497863306,4.687022901,-22.38167939,-0.86259542,23.59
49:33.7,-1.453280408,7.781155396,6.363788013,-11.47328244,-1.496183206,1.503816794,23.57
49:33.8,-1.34075293,6.880935571,5.983109949,-8.885496183,7.961832061,1.992366412,23.57
49:33.9,-1.496376038,7.309497668,6.294356165,-4.053435115,-8.251908397,-1.740458015,23.59
49:34.1,-1.120486377,6.79235011,5.95677373,-9.938931298,-3.748091603,-6.152671756,23.63
49:34.2,-1.616086121,6.830657336,6.239289526,5.267175573,3.404580153,1.167938931,23.59
49:34.3,-1.843535278,8.212111694,5.726930371,-4.06870229,5.022900763,-0.20610687,23.61
49:34.4,-2.506729138,6.943184814,5.935225916,33.35877863,-14.59541985,-28.2519084,23.59
49:34.5,-1.795651245,6.782773303,6.813897925,28.20610687,-51.35114504,-38.75572519,23.59
49:34.7,-1.1540052,8.228871106,5.841852051,-1.603053435,17.7480916,-7.229007634,23.61
49:34.8,-3.0286651,6.2009823,5.573701465,11.66412214,94.18320611,-6.519083969,23.57
49:34.9,-3.766079211,5.717353564,5.911283899,-11.18320611,-17.16793893,4.511450382,23.59
49:35.0,-2.695871069,8.631096985,4.967968445,1.595419847,-16.48854962,24.45038168,23.61
49:35.1,-2.990357874,9.751583362,4.082113831,23.94656489,-34.7480916,0.022900763,23.61
49:35.3,-1.977610571,7.371746912,4.965574243,19.4351145,38.72519084,21.22137405,23.59
49:35.4,-3.617638708,6.988674646,5.286397266,-21.6259542,-6.900763359,18.58015267,23.59
49:35.5,-2.070984436,6.809109521,4.924872815,-27.02290076,-0.374045802,18.32061069,23.57
49:35.6,-2.262520569,8.324639172,5.001487268,-3.496183206,-19.58778626,55.63358779,23.57
49:35.7,-1.541865869,8.286331946,3.536235852,9.389312977,4.183206107,48.2519084,23.63
49:35.9,-2.382230652,9.519345801,4.814739539,9.633587786,36.97709924,34,23.61
49:36.0,-1.893813513,8.106766821,4.620809204,15.18320611,-35.10687023,3.335877863,23.59
49:36.1,0.126892688,8.087613208,5.054159705,5.687022901,-33.09923664,-25.88549618,23.59
49:36.2,2.420537878,8.473079675,6.009446167,-13.69465649,27.20610687,-34.17557252,23.61
49:36.3,-2.209848132,7.967903125,6.457161877,-20.23664122,17.70992366,-57.89312977,23.63
49:36.5,-2.837128967,5.693411548,5.631162305,-25.29770992,-12.3740458,-51.13740458,23.59
49:36.6,-4.453215088,3.979163159,5.710170959,-3.236641221,-112.7862595,-47.13740458,23.59
49:36.7,-4.982333655,6.962338428,6.119579443,61.64885496,-53.5648855,-50.96946565,23.59
49:36.8,-3.730166187,10.50096848,3.045424512,78.85496183,-150.8244275,-32.32061069,23.61
49:36.9,-1.103726965,11.01093344,1.419761584,47.36641221,-181.3587786,-35.71755725,23.59
49:37.1,-0.392649072,8.983044629,1.273715283,15.11450382,-106.3816794,-13.77099237,23.61
49:37.2,-0.146046301,10.21127008,2.300827795,12.84732824,-40.88549618,-4.213740458,23.61
49:37.3,0.44771571,10.11310781,1.778891833,2.65648855,-26.84732824,-31.86259542,23.61
49:37.4,0.359130249,9.567229834,2.873041992,-7.221374046,-81.53435115,-51.75572519,23.61
49:37.5,0.924161841,9.363722693,2.734178296,2.847328244,-62.17557252,-22.96946565,23.59
49:37.7,1.142034192,8.58081875,3.210624426,4.099236641,-78.29770992,-19.09160305,23.57
49:37.8,1.13963999,8.439560852,4.019864587,32.07633588,-32.65648855,5.099236641,23.57
49:37.9,1.09654436,8.305485559,4.537012146,19.48091603,-31.89312977,11.84732824,23.61
49:38.0,0.770932935,9.339780676,4.086902234,5.175572519,-5.236641221,-0.625954198,23.61
49:38.1,0.957680664,10.24957731,3.117250562,-16.32824427,-4.786259542,-23.51145038,23.59
49:38.3,0.565031592,9.478644373,1.793257043,-14.28244275,-5.083969466,-20.86259542,23.61
49:38.4,-0.141257898,9.574412439,1.335964526,8.236641221,19.06870229,11.92366412,23.61
49:38.5,-0.553060583,8.791508496,1.436520996,20.08396947,13.65648855,24.3129771,23.61
49:38.6,-0.811634363,9.967061511,2.032677209,27.21374046,10.34351145,30.28244275,23.61
49:38.7,0.026336218,10.58715974,2.030283008,2.778625954,11.1221374,1.351145038,23.63
49:38.9,0.239420166,9.112331519,2.243366956,-11.14503817,39.29007634,-28.52671756,23.57
49:39.0,-0.272938989,9.572018237,1.922543933,-11.29770992,-16.28244275,-16.14503817,23.63
49:39.1,0.627280835,9.236830005,1.80283385,-1.27480916,16.93129771,-8.885496183,23.61
49:39.2,0.217872351,9.670180505,2.269703174,4.229007634,3.969465649,1.679389313,23.61
49:39.3,0.248996973,9.296685046,2.719813086,10.54198473,-3.854961832,17.94656489,23.65
49:39.5,0.387860669,9.622296472,2.267308972,3.839694656,13.22900763,21,23.61
49:39.6,0.119710083,9.524134204,2.123656873,-4.908396947,6.961832061,7.954198473,23.63
49:39.7,0.095768066,9.469067566,2.075772839,-6.022900763,7.145038168,0.595419847,23.63
49:39.8,0.280121594,9.416395129,2.264914771,-3.030534351,0.832061069,-3.091603053,23.61
49:39.9,0.399831677,9.454702356,2.382230652,-3.786259542,-3.923664122,-6.496183206,23.61
49:40.0,0.596156213,9.394847314,2.327164014,-3.86259542,-4.984732824,-3.13740458,23.63
49:40.2,0.409408484,9.454702356,2.135627881,-5.854961832,-2.305343511,0.93129771,23.63
49:40.3,0.232237561,9.418789331,1.84592948,0.022900763,-2,2.183206107,23.63
49:40.4,0.292092603,9.488221179,1.929726538,1.65648855,-6.625954198,2.160305344,23.61
49:40.5,0.277727393,9.493009583,2.047042419,0.824427481,-9.786259542,1.41221374,23.63
49:40.6,0.313640417,9.502586389,2.231395947,-1.572519084,-9.061068702,0.488549618,23.61
49:40.8,0.363918652,9.643844287,2.075772839,-4.740458015,-5.648854962,-1.671755725,23.63
49:40.9,0.395043274,9.421183533,1.970427966,-5.534351145,-5.664122137,-4.488549618,23.61
49:41.0,0.4333505,9.478644373,1.879448303,-2.198473282,-3.541984733,-3.763358779,23.65
49:41.1,0.397437476,9.445125549,1.924938135,1.450381679,-2.877862595,-1.572519084,23.61
49:41.2,0.486022937,9.493009583,2.178723511,2.732824427,2.007633588,2.41221374,23.63
49:41.4,0.294486804,9.627084875,2.260126367,0.770992366,2.702290076,5.641221374,23.65
49:41.6,0.205901343,9.473855969,2.006340991,-2.267175573,0.603053435,1.595419847,23.63
49:41.7,0.251391174,9.514557397,1.980004773,-1.374045802,-1.564885496,1.061068702,23.65
49:41.9,0.407014282,9.579200842,2.128445276,-1.86259542,-1.65648855,0.595419847,23.65
49:42.1,0.507570752,9.20091698,2.262520569,-4.038167939,-2.526717557,-3.145038168,23.65
49:42.3,-0.445321509,9.224858997,3.612850305,-1.618320611,4.091603053,4.450381679,23.65
49:42.5,0.155623108,9.928754285,1.869871497,-16.4351145,-8.473282443,-7.366412214,23.63
49:42.6,-0.213083948,9.765948572,1.776497632,-27.12977099,-52.28244275,-38.35114504,23.65
49:42.8,0.117315881,9.375693701,1.754949817,2.961832061,22.0610687,-4.229007634,23.67
49:43.1,-0.509964954,8.961496814,3.311180896,23.45801527,-31.96946565,26.35114504,23.67
49:43.3,-0.040701428,9.562441431,2.458845105,-11.13740458,13.20610687,-11.13740458,23.65
49:43.5,0.289698401,9.435548743,2.3080104,-0.572519084,26.32061069,1.091603053,23.67
49:43.6,0.402225879,9.174580762,2.767697119,4.419847328,5.671755725,8.061068702,23.67
49:43.9,0.263362183,9.20091698,2.664746448,0.740458015,1.282442748,13.39694656,23.71
49:44.1,0.055066638,9.327809668,2.396595862,-2.358778626,-3.244274809,-1.389312977,23.67
49:44.3,0.452504114,9.445125549,2.458845105,-1.450381679,-7.175572519,-6.320610687,23.67
49:44.4,0.761356128,9.483432776,2.497152332,-3.053435115,-7.93129771,-4.435114504,23.67
49:44.6,0.713472095,9.253589417,2.212242334,-4.511450382,11.00763359,-3,23.71
49:44.9,0.311246216,9.131485132,2.296039392,-4.648854962,20.61068702,9.312977099,23.71
49:45.1,0.189141931,9.208099585,2.604891406,16.38931298,-22.0610687,15.09160305,23.67
49:45.3,0.241814368,9.414000928,2.159569897,-15.49618321,-3.679389313,-21.49618321,23.67
49:45.4,0.5770026,9.169792358,2.020706201,-0.541984733,-14.64122137,-8,23.71
49:45.6,0.536301172,9.263166223,2.209848132,3.34351145,-6.816793893,-3.473282443,23.71
49:45.9,0.395043274,9.574412439,2.181117712,1.610687023,-0.053435115,4.740458015,23.71
49:46.1,0.253785376,9.524134204,2.094926453,-2.190839695,2.259541985,4.65648855,23.71
49:46.2,0.244208569,9.490615381,1.908178723,-2.603053435,2.328244275,0.328244275,23.71
49:46.4,0.354341846,9.387664709,2.154781494,1.480916031,-1.458015267,-1.557251908,23.73
49:46.6,0.418985291,9.437942944,2.159569897,-1.854961832,-4.122137405,-0.916030534,23.73
49:46.9,0.421379492,9.416395129,1.742978809,-1.34351145,1.175572519,-3.801526718,23.75
49:47.0,0.471657727,9.600748657,2.035071411,3.114503817,-1.061068702,-1.34351145,23.77
49:47.2,0.584185205,9.531316809,2.353500232,0.79389313,1.992366412,1.129770992,23.73
49:47.4,-1.256955872,9.80665,3.023876697,-11.65648855,28.21374046,-9.847328244,23.73
49:47.7,-2.425326282,10.34773958,3.14358678,6.312977099,-3.038167939,-9.297709924,23.73
49:47.8,-2.521094348,8.00381615,3.538630054,-7.320610687,-27.44274809,-20.74045802,23.75
49:48.0,-0.280121594,10.14423243,1.781286035,6.167938931,-12.04580153,38.0610687,23.75
49:48.2,0.893037219,10.18253966,2.346317627,1.297709924,51.45038168,15.20610687,23.73
49:48.4,-0.639251843,6.528987927,3.280056274,-14.67938931,45.36641221,1.877862595,23.71
49:48.7,-3.253720056,12.27267771,4.007893579,25.21374046,23.89312977,8.083969466,23.71
49:48.9,-0.282515796,9.543287817,1.462857214,-53.67938931,-77.16793893,-109.1526718,23.71
49:49.1,0.550666382,7.28316145,1.079784949,-31.44274809,-11.80152672,-20.79389313,23.71
49:49.3,0.612915625,11.70285771,2.403778467,88.23664122,46.4351145,171.6946565,23.67
49:49.6,0.181959326,8.975862024,0.612915625,18.03816794,-28.72519084,35.82442748,23.67
49:49.7,-0.588973608,7.192181787,3.24414325,46.82442748,44.47328244,40.00763359,23.71
49:49.9,2.013523596,11.71243452,1.290474695,-54.52671756,-51.72519084,-88.72519084,23.67
49:50.1,1.580173096,10.57758293,-1.051054529,-91.73282443,-69.8778626,-205.3435115,23.65
49:50.3,0.359130249,8.370129004,3.366247534,38.44274809,-152.2824427,42.51145038,23.65
49:50.5,2.346317627,13.93425366,2.403778467,169.3816794,42.8778626,163.778626,23.67
49:50.7,-0.500388147,9.504980591,2.406172668,30.46564885,-80.28244275,47.61068702,23.67
49:50.9,-0.780509741,10.88643495,1.972822168,-7.175572519,-22.51145038,-12.72519084,23.65
49:51.1,0.474051929,11.6837041,0.268150586,-82.63358779,-21.11450382,-157.9923664,23.71
49:51.2,0.44771571,9.442731348,0.993593689,-83.67938931,-78.77099237,-157.0534351,23.67
49:51.5,0.301669409,9.758765967,1.695094775,32.24427481,-24.98473282,65.5648855,23.67
49:51.7,1.347935535,7.639897498,3.052607117,57.29770992,20.48091603,74.3129771,23.65
49:51.9,0.294486804,8.243236316,3.208230225,40.88549618,47.53435115,47.64885496,23.65
49:52.0,-0.952892261,10.36210479,2.808398547,32.59541985,-11.34351145,33.13740458,23.65
49:52.3,1.410184778,11.88002864,1.357512341,-88.46564885,-3.740458015,-141.0916031,23.67
49:52.5,1.625662927,7.524975818,0.895431421,-115.4656489,-29.29007634,-83.41221374,23.67
49:52.7,0.553060583,13.62779585,1.058237134,85.5648855,63.99236641,175.1145038,23.65
49:52.9,0.062249243,9.325415466,1.335964526,38.1221374,49.34351145,51.04580153,23.65
49:53.1,-1.649604944,8.973467822,2.121262671,32.83969466,70.70992366,41.16030534,23.67
49:53.4,0.897825623,9.722852942,3.009511487,-41.92366412,16.35877863,-118.0152672,23.65
49:53.6,1.594538306,8.418013037,2.123656873,-102.6793893,48.51145038,-69.5648855,23.65
49:53.8,-1.90339032,8.389282617,2.32237561,-29.3129771,101.3053435,128.3358779,23.63
49:53.9,-3.383006946,13.32133804,2.832340564,-8.687022901,112.0458015,174.5725191,23.65
49:54.2,-2.171540906,9.133879333,2.557007373,-3.236641221,56.90076336,58.26717557,23.65
49:54.3,-0.914585034,7.687781531,3.256114258,17.67175573,51.32824427,48.24427481,23.71
49:54.5,0.244208569,8.573636145,2.767697119,6.893129771,34.34351145,9.549618321,23.67
49:54.7,0.136469495,9.730035547,2.801215942,1.778625954,8.312977099,3.34351145,23.67
49:54.8,0.275333191,9.787496387,1.857900488,-10.25954198,7.519083969,-9.954198473,23.67
49:55.1,0.184353528,9.21528219,1.996764185,2.595419847,-8.839694656,-0.106870229,23.67
49:55.3,0.088585461,9.557653027,1.991975781,1.053435115,-2.984732824,1.366412214,23.71
49:55.5,0.10055647,9.521740002,1.982398975,1.786259542,4.267175573,-0.236641221,23.71
49:55.6,0.246602771,9.715670337,1.999158386,0.801526718,2.030534351,0.511450382,23.71
49:55.8,0.253785376,9.615113867,1.977610571,-1.083969466,2.099236641,2.106870229,23.65
49:56.1,0.186747729,9.526528406,2.29364519,-0.122137405,-1.938931298,4.404580153,23.67
49:56.3,0.117315881,9.543287817,1.757344019,-5.603053435,-2.564885496,1.618320611,23.67
49:56.4,0.177170923,9.397241516,1.764526624,-4.564885496,-1.86259542,-2.770992366,23.73
49:56.6,0.244208569,9.445125549,1.711854187,0.488549618,-3.015267176,-4.061068702,23.73
49:56.9,0.251391174,9.557653027,2.097320654,1.229007634,-0.977099237,1.893129771,23.73
49:57.1,0.050278235,9.346963281,2.142810486,0.34351145,-2.473282443,3.114503817,23.73
49:57.2,0.107739075,9.64863269,2.085349646,-2.65648855,-0.748091603,-0.755725191,23.71
49:57.4,0.375889661,9.435548743,2.190694519,-0.572519084,0.961832061,-0.076335878,23.71
49:57.5,0.421379492,9.289502441,2.154781494,-0.053435115,4.282442748,1.458015267,23.73
49:57.8,0.059855042,9.538499414,2.331952417,8.41221374,-3.694656489,10.82442748,23.73
49:58.0,0.375889661,9.198522778,1.841141077,-6.328244275,11.80152672,-8.145038168,23.71
49:58.1,0.4333505,9.363722693,1.8746599,-2.992366412,34.01526718,-12.51145038,23.71
49:58.3,-2.822763757,10.46266125,2.679111658,-2.27480916,62.44274809,8.946564885,23.71
49:58.5,-0.861912598,8.875305554,2.317587207,-16.86259542,21.85496183,2.564885496,23.71
49:58.8,0.701501086,12.55998191,1.721430994,-21.71755725,67.53435115,44.1221374,23.67
49:58.9,0.909796631,7.592013464,2.209848132,-10.79389313,62.98473282,23.64885496,23.73
49:59.1,-1.043871924,8.573636145,2.717418884,16.66412214,74.79389313,34.72519084,23.71
49:59.3,-5.746083984,12.31816754,3.581725684,11.77862595,23.76335878,-10.21374046,23.73
49:59.5,-2.557007373,10.673351,1.321599316,-28.30534351,-124.4961832,-73.09923664,23.75
49:59.7,-0.952892261,8.923189587,0.593762012,-44.54961832,-68.39694656,-53.52671756,23.67
49:59.9,-0.260967981,10.51533369,1.273715283,-7.954198473,-62.29007634,-16.70229008,23.73
50:00.1,0.933738647,8.303091357,3.521870642,59.91603053,46.82442748,40.32061069,23.71
50:00.3,-1.910572925,8.978256226,3.373430139,52.00763359,130.8931298,78.9389313,23.71
50:00.5,-2.691082666,10.93192478,3.454832996,17.0610687,-5.564885496,48.69465649,23.73
50:00.6,-1.666364355,12.42830082,3.430890979,-1.038167939,-13.90076336,2.015267176,23.71
50:00.8,0.77811554,8.882488159,0.938527051,-70.83969466,-80.78625954,-85.61832061,23.67
50:01.0,0.313640417,9.390058911,1.058237134,-38.96183206,-21.90076336,-43.87022901,23.73
50:01.2,0.399831677,7.639897498,2.315193005,63.46564885,65.10687023,48.64885496,23.71
50:01.4,0.969651672,7.793126404,1.616086121,56.75572519,16.99236641,56.67175573,23.73
50:01.6,-0.407014282,9.303867651,2.710236279,37.05343511,29.48854962,55,23.73
50:01.8,0.090979663,8.786720093,1.644816541,-19.11450382,32.26717557,-58.25954198,23.71
50:02.0,0.332794031,8.944737402,2.193088721,-67.65648855,-17.18320611,-60.10687023,23.73
50:02.2,0.766144531,8.796296899,1.565807886,-60.47328244,-2.870229008,-38.00763359,23.67
50:02.4,0.483628735,7.592013464,2.312798804,19.99236641,82.41221374,46.55725191,23.73
50:02.6,-0.019153613,8.125920435,1.434126794,53.6870229,128.6564885,102.4122137,23.73
50:02.8,-3.162740393,12.17212124,3.921702319,28.85496183,23.58778626,53.02290076,23.67
50:02.9,-1.96085116,10.74757125,4.012681982,-7.435114504,1.488549618,-14.32061069,23.73
50:03.2,0.682347473,10.40280621,1.522712256,-88.9389313,-69.70229008,-111.0687023,23.73
50:03.4,0.670376465,8.216900098,1.206677637,-61.38167939,-9.824427481,-56.50381679,23.71
50:03.6,1.321599316,8.825027319,2.973598462,73.04580153,140.7938931,124.6641221,23.67
50:03.8,-1.046266125,8.803479504,3.14358678,39.34351145,12.65648855,84.27480916,23.67
50:04.1,-0.440533105,11.33415066,2.516305945,13.02290076,3.160305344,2.801526718,23.71
50:04.3,-0.325611426,10.83376251,2.149993091,-46.0610687,-84.09923664,-88.19083969,23.71
50:04.5,0.059855042,8.626308582,0.378283862,-63.98473282,-38.69465649,-84.9389313,23.67
50:04.7,0.299275208,9.521740002,2.099714856,40.45038168,-3.122137405,34.9389313,23.67
50:04.8,-0.667982263,10.79066688,3.785232825,70.61832061,-68.21374046,46.97709924,23.71
50:05.1,-0.658405457,9.555258826,4.429273071,37.79389313,-101.8015267,38.32061069,23.71
50:05.3,-0.454898315,13.72595812,0.660799658,-29.88549618,-96.65648855,-29.63358779,23.65
50:05.5,-0.919373438,11.34612167,-3.380612744,-45.77099237,-158.7557252,-150.9770992,23.65
50:05.6,-2.260126367,8.784325891,-1.503558643,16.0610687,-37.85496183,-100.6030534,23.65
50:05.8,-1.980004773,9.112331519,0.445321509,60.41221374,-167.8167939,-1.900763359,23.65
50:06.0,-0.01436521,11.76271276,0.134075293,25.64122137,-150.5877863,16.78625954,23.63
50:06.1,1.256955872,9.567229834,2.243366956,-4.908396947,-46.61068702,-40.36641221,23.65
50:06.3,0.893037219,9.313444458,2.391807458,-27.19083969,-14.71755725,-44.0610687,23.67
50:06.5,0.225054956,8.992621436,2.40856687,9.572519084,5.870229008,30.93129771,23.71
50:06.7,-0.067037646,9.342174878,2.736572498,21.70229008,20.08396947,53.91603053,23.67
50:06.9,-0.450109912,8.966285217,3.557783667,-13.11450382,7.854961832,-6.801526718,23.65
50:07.1,-0.287304199,7.941566907,3.160346191,8.251908397,-47.41984733,-8.442748092,23.65
50:07.3,-0.052672437,8.856151941,2.035071411,5.20610687,-77.45038168,-15.93129771,23.67
50:07.5,-1.065419739,10.44829604,1.189918225,-18.81679389,-57.48091603,-38.77862595,23.67
50:07.6,-4.134786267,10.70208142,2.521094348,-34.25954198,-83,-101.0763359,23.65
50:07.8,-8.49462749,10.50575688,5.63834491,-112.7175573,-26.84732824,-250.1374046,23.67
50:08.0,-4.031835596,0.869095203,4.290409375,-120.9083969,-62.66412214,-241.1145038,23.67
50:08.2,1.438915198,-7.24006582,2.870647791,-4.381679389,-28.57251908,-42.90839695,23.65
50:08.4,-0.799663354,-4.467580298,7.381323718,73.09923664,88.92366412,87.25954198,23.65
50:08.6,1.259350073,-2.085349646,4.256890552,171.7862595,14.51908397,76.09160305,23.65
50:08.8,0.016759412,6.924031201,10.30703815,176.0610687,75.4351145,161.740458,23.65
50:09.0,-3.991134167,9.167398157,6.737283472,101.0229008,95.61832061,121.7022901,23.65
50:09.2,-3.794809631,8.590395557,6.70615885,32.87022901,-14.00763359,15.29007634,23.65
50:09.4,-1.292868896,9.217676392,2.573766785,-20.71755725,-63.14503817,-75.81679389,23.65
50:09.6,-1.778891833,8.590395557,1.244984863,-3.748091603,-77.65648855,-47.99236641,23.65
50:09.8,-3.524264844,8.916006982,3.481169214,2.015267176,-88.33587786,-43.16793893,23.65
50:09.9,-2.772485522,11.63582007,3.861847278,-14.63358779,-83.38167939,-48.11450382,23.63
50:10.1,-1.721430994,7.163451367,3.351882324,-33.95419847,-105.4580153,-110.8549618,23.63
50:10.2,-2.130839478,7.668627917,3.909731311,-2.389312977,-69.07633588,-71.50381679,23.63
50:10.3,-1.90339032,5.995080957,4.151545679,24.49618321,-73.05343511,-63.51145038,23.61
50:10.4,-2.353500232,6.533776331,5.317521887,45.74045802,-98.72519084,-64.91603053,23.63
50:10.5,-2.889801404,8.157045056,5.872976672,35.61832061,-103.7480916,-61.80152672,23.65
50:10.8,-4.034229797,7.046135486,4.793191724,9.65648855,-106.5648855,-58.23664122,23.63
50:10.9,-3.320757703,7.790732202,5.013458276,6.129770992,-77.9389313,-46.96946565,23.63
50:11.0,-1.68791217,7.943961108,5.619191296,-5.381679389,-73.24427481,-31.83206107,23.63
50:11.1,-0.090979663,5.813121631,5.056553906,-24.64885496,-33.29770992,-28.35877863,23.61
50:11.3,-0.275333191,7.029376074,6.423643054,2.160305344,-35.41221374,8.679389313,23.59
50:11.4,0.205901343,8.116343628,6.473921289,-22.29007634,-31.61832061,-9.618320611,23.59
50:11.5,0.708683691,6.220135913,6.962338428,2.030534351,-46.11450382,-19.16793893,23.61
50:11.6,0.428562097,7.876923462,7.963114722,-1.198473282,-31.3740458,-13.24427481,23.61
50:11.7,0.938527051,5.549759448,7.666233716,-6.534351145,-12.22137405,-22.25954198,23.63
50:11.9,0.165199915,5.961562134,8.030152368,-10.03816794,2.519083969,-12.67938931,23.61
50:12.0,-0.428562097,6.801926917,8.039729175,-19.48854962,-24.06870229,-7.213740458,23.61
50:12.1,0.5770026,5.614402893,6.485892297,-10.51908397,8,-8.053435115,23.61
50:12.2,0.816422766,6.698976245,5.908889697,15.21374046,29.04580153,23.29770992,23.63
50:12.3,-1.563413684,7.184999182,8.542511523,2.473282443,4.083969466,-2.129770992,23.61
50:12.5,0.708683691,6.481103894,7.647080103,-18.7480916,-3.916030534,3.755725191,23.61
50:12.6,0.737414111,5.779602808,7.821856824,10.99236641,-16.66412214,0.65648855,23.57
50:12.7,0.196324536,6.351817004,7.472303381,12.07633588,-2.854961832,10.64122137,23.61
50:12.8,0.993593689,6.737283472,6.959944226,-1.809160305,-43.09160305,0.801526718,23.61
50:12.9,1.249773267,6.390124231,6.442796667,-6.564885496,8.160305344,9.053435115,23.57
50:13.1,0.797269153,5.97113894,7.271190442,-2.809160305,-14.69465649,-2.687022901,23.63
50:13.2,1.984793176,5.877765076,7.44117876,-4.061068702,-17.80916031,6.763358779,23.61
50:13.3,1.173158813,6.457161877,7.218518005,6.083969466,26.21374046,2.030534351,23.61
50:13.4,0.435744702,6.694187842,7.082048511,11.50381679,-2.282442748,7.358778626,23.59
50:13.5,1.644816541,6.885723975,6.667851624,0.557251908,35.77862595,-9.167938931,23.61
50:13.6,0.572214197,6.344634399,7.026981873,-6.267175573,47.16793893,-9.41221374,23.61
50:13.8,4.249707947,9.191340173,7.287949854,-1.946564885,-19.90839695,6.229007634,23.61
50:13.9,-0.725443103,6.449979272,6.787561707,1.885496183,37.52671756,-5.801526718,23.61
50:14.0,-1.551442676,6.828263135,7.278373047,-3.419847328,-80.53435115,1.877862595,23.63
50:14.1,4.405331055,6.993463049,6.517016919,7.290076336,57.76335878,-22.77862595,23.61
50:14.3,-0.258573779,6.397306836,7.134720947,-2.603053435,5.503816794,3.152671756,23.61
50:14.4,-0.502782349,6.538564734,6.993463049,4.557251908,2.183206107,-0.229007634,23.61
50:14.5,-0.909796631,6.445190869,6.933608008,10.48854962,-12.85496183,-11.58015267,23.61
50:14.7,-0.596156213,6.964732629,6.469132886,6.419847328,-20.98473282,4.65648855,23.63
50:14.8,-0.981622681,6.658274817,6.883329773,11.95419847,-0.190839695,10.54961832,23.63
50:14.9,0.179565125,7.661445313,6.078878015,8.717557252,-9.786259542,-7.076335878,23.61
50:15.1,-0.588973608,7.053318091,6.560112549,9.541984733,-12.18320611,4.290076336,23.61
50:15.2,-0.244208569,7.31189187,5.968744739,13.87022901,-8.709923664,0.122137405,23.63
50:15.3,0.102950671,7.690175732,5.693411548,10.67175573,-13.96183206,8.938931298,23.61
50:15.5,0.397437476,7.726088757,5.358223315,4.595419847,-9.145038168,1.961832061,23.61
50:15.6,0.74938512,8.080430603,5.303156677,-16.39694656,3.496183206,-8.664122137,23.61
50:15.7,-0.521935962,7.175422375,6.291961963,-15.48091603,8.854961832,-1.839694656,23.61
50:15.8,0.083797058,7.551312036,5.980715747,-0.969465649,1.755725191,1.244274809,23.63
50:16.0,-0.016759412,7.422025146,5.992686755,-2.007633588,2.519083969,0.351145038,23.61
50:16.1,-0.301669409,7.400477332,6.196193896,-4.175572519,3.34351145,1.908396947,23.63
50:16.3,-0.122104285,7.445967163,6.095637427,-3.473282443,2.267175573,0.297709924,23.61
50:16.4,-0.610521423,6.969521033,6.430825659,-1.717557252,-0.34351145,1.496183206,23.63
50:16.5,-0.371101257,7.292738257,6.212953308,-1.259541985,1.564885496,-1.007633588,23.61
50:16.6,-0.380678064,7.338228088,6.12915625,-4.870229008,3.038167939,-3.335877863,23.65
50:16.8,-0.835576379,7.137115149,6.356605408,-0.564885496,4.648854962,1.114503817,23.65
50:16.9,-0.660799658,7.486668591,6.07169541,-0.305343511,1.86259542,-1.526717557,23.65
50:17.0,-0.770932935,7.302315063,6.167463477,2.396946565,-2.755725191,-1.213740458,23.65
50:17.2,-0.454898315,7.38371792,5.844246252,-2.389312977,-8.20610687,-3.816793893,23.63
50:17.3,-1.022324109,6.947973218,6.502651709,-12.7480916,-3.099236641,0.610687023,23.65
50:17.4,-0.665588062,7.110778931,6.406883643,-4.061068702,-6.152671756,15.96946565,23.65
50:17.7,-0.203507141,7.144297754,6.447585071,-10.04580153,-5.877862595,12.07633588,23.61
50:17.8,0.1436521,6.830657336,6.825868933,-10.03053435,-4.267175573,14.22137405,23.63
50:17.9,0.256179578,6.696582043,6.90727179,8.351145038,-18.83969466,10.24427481,23.71
50:18.1,0.890643018,7.053318091,6.497863306,15.69465649,-17.83206107,8.480916031,23.61
50:18.2,1.812410657,7.374141113,5.920860706,19.46564885,-4.572519084,-1.06870229,23.65
50:18.3,0.969651672,7.699752539,5.525817432,6.549618321,-0.541984733,-10.22900763,23.67
50:18.5,0.495599744,7.630320691,5.741295581,2.954198473,18.97709924,-9.106870229,23.65
50:18.6,0.215478149,7.556100439,5.877765076,3.145038168,7.229007634,-10.38931298,23.65
50:18.7,-0.179565125,8.020575562,5.822698438,13.53435115,-0.129770992,-7.335877863,23.67
50:18.9,-1.34075293,8.066065393,4.180276099,22.3129771,26.94656489,-17.02290076,23.71
50:19.0,1.233013855,8.336610181,4.898536597,11.36641221,-4.236641221,10.20610687,23.65
50:19.1,1.498770239,9.402029919,5.123591553,5.809160305,-18.18320611,7.93129771,23.67
50:19.3,-0.656011255,9.255983618,4.220977527,10.96183206,26.85496183,10.80916031,23.67
50:19.4,0.395043274,8.334215979,4.501099121,-10.26717557,-28.98473282,8.038167939,23.67
50:19.5,0.495599744,8.049305981,4.96078584,9.839694656,-15.84732824,-9.954198473,23.67
50:19.7,-0.54827218,9.193734375,4.98951626,11.67175573,-7.93129771,4.740458015,23.71
50:19.8,0.509964954,9.040505469,4.309562988,10.74045802,19.5648855,-10.09160305,23.63
50:19.9,-0.325611426,10.84812772,4.465186096,6.450381679,-9.335877863,7.267175573,23.65
50:20.1,0.117315881,7.331045483,3.196259216,-0.916030534,5.435114504,-1.58778626,23.67
50:20.2,0.15801731,8.473079675,4.276044165,6.473282443,-8.160305344,3.267175573,23.65
50:20.3,0.275333191,9.12909093,3.916913916,-21.12977099,-19.77099237,9.58778626,23.67
50:20.5,0.823605371,9.05726488,4.046200806,-12.51145038,-32.58778626,-9.740458015,23.67
50:20.6,3.047818713,9.785102185,4.072537024,-9.396946565,26.64885496,-17.58778626,23.67
50:20.7,1.338358728,8.358157996,4.1826703,18.12977099,-1.053435115,-20.67175573,23.67
50:20.9,-0.081402856,8.973467822,4.35505282,5.06870229,18.94656489,-5.076335878,23.71
50:21.0,0.375889661,8.781931689,3.224989636,12.22900763,-28.60305344,1.335877863,23.67
50:21.1,1.170764612,8.899247571,3.442861987,0.748091603,-14.18320611,-1.664122137,23.71
50:21.3,0.526724365,9.102754712,3.284844678,8.572519084,1.267175573,9.145038168,23.65
50:21.4,0.876277808,9.181763367,3.325546106,4.091603053,6.061068702,3.664122137,23.71
50:21.5,0.375889661,9.097966309,3.414131567,1.152671756,-0.27480916,2.076335878,23.65
50:21.7,0.622492432,9.040505469,2.97120426,-0.809160305,2.877862595,-1.366412214,23.67
50:21.8,0.732625708,9.076418494,2.91374342,-0.366412214,2.27480916,-2.396946565,23.67
50:22.0,0.694318481,9.150638745,3.141192578,0.801526718,3.145038168,1.938931298,23.67
50:22.1,0.526724365,8.908824377,3.308786694,-4.297709924,5.106870229,-0.572519084,23.71
50:22.2,0.301669409,9.165003955,3.22977804,-2.748091603,9.923664122,-0.954198473,23.65
50:22.4,0.019153613,9.232041602,3.51947644,5.740458015,-10.51908397,0.992366412,23.73
50:22.5,0.404620081,9.643844287,3.217807031,-1.129770992,6.335877863,8.236641221,23.67
