Time,Acc-X,Acc-Y,Acc-Z,Gyro-X,Gyro-Y,Gyro-Z,Ambient Temp
51:49.3,0.070229915,2.854686446,0.834778312,-2.170483461,-2.284987277,-0.445292621,7.683333333
51:49.4,0.082200924,5.955177596,1.580971163,-4.259541985,-1.41221374,-4.419847328,15.36666667
51:49.4,0.067037646,9.352549752,2.432508887,-6.03307888,-2.34605598,-7.010178117,23.03666667
51:49.4,-0.142055965,9.599152523,2.528276953,-5.692111959,-3.338422392,-7.150127226,23.02333333
51:49.5,-0.069431848,9.403626054,2.681505859,-5.17302799,-3.244274809,-4.529262087,23.01
51:49.5,-0.074220251,9.113129586,2.728591825,-4.96437659,-1.152671756,-3.335877863,23.00333333
51:49.6,-0.003192269,9.236830005,2.636016028,-3.89821883,-0.465648855,-2.201017812,22.99666667
51:49.6,-0.124498486,9.491413448,2.612872078,-1.796437659,-5.109414758,0.384223919,22.99666667
51:49.7,-0.133277226,9.549672355,2.753331909,0.557251908,-10.1475827,4.402035623,23.00333333
51:49.7,-0.032720756,9.346165214,2.877830396,-0.226463104,-9.435114504,6.325699746,23.01
51:49.7,0.038307227,9.347761348,2.903368547,-4.603053435,-5.68956743,6.371501272,23.01
51:49.8,0.040701428,9.168994291,2.676717456,-8.72519084,-1.183206107,3.055979644,23.01
51:49.8,0.021547815,9.089985636,2.544238298,-9.132315522,1.010178117,-1.730279898,23.01
51:49.9,-0.022345882,8.907228243,2.604891406,-5.506361323,2.076335878,-3.31043257,23.01
51:49.9,-0.07741252,9.02853446,2.742957035,-1.844783715,4.030534351,-2.610687023,23.01
51:50.0,-0.124498486,9.141061938,2.789244934,-0.269720102,9.03307888,-0.567430025,23.01
51:50.0,-0.25538151,9.449913953,2.641602498,0.625954198,12.3562341,-2.231552163,23.01
51:50.1,-0.241814368,9.524932271,2.516305945,0.353689567,7.549618321,-4.24173028,23.01
51:50.1,-0.212285881,9.435548743,2.49475813,0.834605598,-1.541984733,-7.045801527,23.00333333
51:50.1,-0.000798067,9.142658073,2.639208297,0.419847328,-7.491094148,-6.290076336,22.99666667
51:50.2,0.038307227,8.997409839,2.723803422,1.770992366,-3.753180662,-3.559796438,22.99
51:50.2,-0.025538151,9.130687065,2.868253589,4.076335878,-2.043256997,2.860050891,22.99
51:50.3,-0.183555461,9.23523387,2.80760048,6.391857506,-2.122137405,7.847328244,22.99
51:50.3,-0.209891679,9.410808659,2.75891838,7.442748092,-4.944020356,10.2697201,22.99666667
51:50.4,-0.142854032,9.480240507,2.674323254,6.366412214,-4.524173028,9.972010178,23.00333333
51:50.4,-0.085393193,9.51375933,2.661554179,4.681933842,-2.641221374,8.195928753,23.00333333
51:50.4,-0.045489832,9.390856978,2.638410229,2.455470738,0.615776081,6.404580153,22.99666667
51:50.5,-0.061451176,9.303069584,2.52348855,1.06870229,4.819338422,4.592875318,22.99
51:50.5,-0.085393193,9.306261853,2.41734561,0.267175573,5.086513995,3.949109415,22.99
51:50.6,-0.043893697,9.251993282,2.380634517,-0.669211196,5.982188295,3.045801527,22.99
51:50.6,-0.047884033,9.263166223,2.3080104,-1.735368957,9.218829517,0.045801527,22.99
51:50.7,-0.050278235,9.333396139,2.284866451,-2.488549618,12.25954198,-3.679389313,22.99
51:50.8,-0.110931344,9.441135213,2.252145695,-1.885496183,11.03307888,-6.099236641,22.99
51:50.8,-0.245804704,9.511365129,2.319981409,0.994910941,3.488549618,-4.844783715,23.01
51:50.9,-0.363918652,9.508970927,2.446076029,3.740458015,-0.368956743,-3.770992366,23.01666667
51:50.9,-0.481234534,9.573614372,2.587333927,5.312977099,-3.987277354,-2.315521628,23.02333333
51:51.0,-0.458888652,9.543287817,2.616064347,4.320610687,-4.432569975,-1.625954198,23.00333333
51:51.0,-0.393447139,9.554460758,2.546632499,2.730279898,-4.254452926,0.72264631,22.99666667
51:51.1,-0.296082939,9.548874288,2.440489559,1.229007634,-2.165394402,2.977099237,22.99
51:51.1,-0.280121594,9.577604708,2.33115435,0.109414758,0.371501272,3.541984733,22.99
51:51.1,-0.262564115,9.498596053,2.134829814,-1.229007634,0.834605598,2.450381679,22.99
51:51.2,-0.224256889,9.392453113,1.899399984,-2.597964377,1.882951654,0.577608142,22.97666667
51:51.2,-0.151632772,9.299079248,1.780487968,-2.93129771,4.572519084,-1.10178117,22.96333333
51:51.3,-0.128488822,9.295886979,1.779689901,-3.923664122,7.679389313,-2.162849873,22.96333333
51:51.3,-0.242612435,9.225657064,1.821987463,-3.923664122,10.42493639,-3.753180662,22.97666667
51:51.4,-0.311246216,9.274339164,1.965639563,-3.564885496,9.475826972,-3.900763359,22.99
51:51.4,-0.347159241,9.354145886,2.142012419,-2.262086514,8.015267176,-2.582697201,22.99
51:51.5,-0.288900334,9.500990255,2.256136031,-0.938931298,6.292620865,-1.503816794,22.99666667
51:51.5,-0.248996973,9.591969918,2.33115435,-1.402035623,4.287531807,0.666666667,23.00333333
51:51.5,-0.274535124,9.524932271,2.218626872,-1.75826972,-2.175572519,1.773536896,23.01
51:51.6,-0.222660754,9.527326473,2.228203678,-1.486005089,-9.765903308,2.590330789,22.99666667
51:51.6,-0.075018319,9.548076221,2.296039392,-0.804071247,-13.52417303,2.735368957,22.98333333
51:51.7,0.072624117,9.608729329,2.462835441,-0.671755725,-8.251908397,4.605597964,22.97666667
51:51.7,-0.024740084,9.555258826,2.605689473,-1.305343511,-0.312977099,8.508905852,22.98333333
51:51.8,-0.189939998,9.275935299,2.632823759,-1.908396947,3.65394402,12.13486005,22.98333333
51:51.8,-0.332794031,9.130687065,2.623246952,-4.053435115,4.944020356,13.29007634,22.97666667
51:51.9,-0.395043274,9.14345614,2.454854769,-8.557251908,6.213740458,11.4351145,22.97666667
51:51.9,-0.436542769,9.441135213,2.12445494,-11.86005089,11.79643766,5.320610687,22.98333333
51:51.9,-0.501984281,9.687737984,1.992773848,-10.36386768,12.10941476,-0.435114504,22.99
51:52.0,-0.593762012,9.726843278,2.232194014,-5.445292621,0.954198473,-1.72264631,22.98333333
51:52.0,-0.467667391,9.658209497,2.513113676,-3.318066158,-14.8346056,1.287531807,22.97666667
51:52.1,-0.137267562,9.514557397,2.671130986,-4.458015267,-22.79898219,3.371501272,22.97
51:52.1,0.23542983,9.473057902,2.671130986,-8.513994911,-15.96183206,1.737913486,22.97
51:52.2,0.324813359,9.212089921,2.671929053,-12.0610687,-5.839694656,-1.061068702,22.97666667
51:52.2,0.225853023,9.052476477,2.503536869,-15.03816794,7.798982188,-4.536895674,22.98333333
51:52.2,0.183555461,8.837796395,2.3080104,-15.44783715,9.399491094,-4.681933842,22.97666667
51:52.3,-0.066239579,8.901641772,2.07258057,-11.94147583,16.00508906,-9.549618321,22.96333333
51:52.3,-0.244208569,8.941545133,2.337538888,-6.005089059,6.269720102,-9.890585242,22.96333333
51:52.4,-0.434946635,9.133081266,2.695073002,-1.178117048,4.340966921,-11.62849873,22.97666667
51:52.4,-0.48522487,9.168994291,3.098096948,0.699745547,-4.488549618,-4.778625954,22.99
51:52.5,-0.383870333,9.194532442,3.055799386,-0.918575064,-2.419847328,-2.333333333,22.97666667
51:52.5,-0.353543778,9.141860006,2.888205269,-1.544529262,-0.402035623,-1.513994911,22.96333333
51:52.6,0.094969999,9.225657064,3.006319218,-0.025445293,2.170483461,0.058524173,22.95666667
51:52.6,-0.189141931,9.136273535,3.015896025,1.564885496,-2.65394402,5.167938931,22.96333333
51:52.6,-0.047884033,9.105148914,3.216210897,3.37913486,-7.430025445,7.498727735,22.96333333
51:52.7,-0.340774703,9.109937317,3.131615771,2.737913486,-8.936386768,5.470737913,22.95666667
51:52.7,-0.115719747,9.217676392,3.092510478,3.117048346,-5.279898219,-0.030534351,22.95
51:52.8,-0.040701428,9.339780676,3.12044283,1.893129771,0.340966921,0.933842239,22.95
51:52.8,-0.325611426,9.406020256,2.982377201,-0.086513995,1.201017812,2.847328244,22.95
51:52.9,-0.394245207,9.380482104,3.140394511,-1.328244275,-5.010178117,6.529262087,22.95666667
51:52.9,-0.37908193,9.31583866,2.907358883,-3.773536896,-9.572519084,7.269720102,22.96333333
51:52.9,-0.121306217,9.165003955,2.730986027,-3.452926209,-12.71755725,9.844783715,22.97
51:53.0,-0.195526469,9.236031938,2.659159977,-2.58524173,-8.75826972,9.178117048,22.97
51:53.0,-0.279323527,9.10036051,2.682303927,-0.707379135,-8.300254453,9.040712468,22.97666667
51:53.1,-0.261766048,9.02294799,2.806802413,2.145038168,-6.223918575,4.41475827,22.98333333
51:53.1,0.056662773,9.12350446,2.987165605,2.256997455,-2.195928753,3.493638677,22.98333333
51:53.2,0.140459831,9.337386475,3.035847705,0.430025445,-0.582697201,2.246819338,22.97666667
51:53.2,0.104546806,10.6685626,3.832318791,3.106870229,-1.096692112,2.816793893,22.97
51:53.3,0.4333505,10.70926403,3.627215515,0.979643766,6.109414758,3.832061069,22.97
51:53.3,0.185151595,10.59913075,3.269681401,5.58524173,18.5216285,2.335877863,22.97
51:53.3,0.334390165,9.4219816,2.490767794,4.450381679,22.8956743,2.590330789,22.97666667
51:53.4,-0.345563106,8.607953035,1.608105448,12.32569975,27.38931298,-4.496183206,22.98333333
51:53.4,-0.332794031,8.734845723,1.689508305,12.65648855,10.51145038,-2.437659033,22.98333333
51:53.5,-0.418985291,8.908824377,1.680729565,11.73536896,6.577608142,-3.524173028,22.97666667
51:53.5,-0.251391174,9.660603699,2.610477877,7.707379135,-6.832061069,2.959287532,22.96333333
51:53.6,-0.222660754,9.706891597,2.810792749,6.208651399,-1.753180662,2.223918575,22.95666667
51:53.6,-0.209891679,9.595162187,2.769293254,3.79389313,-1.664122137,3.03307888,22.95
51:53.7,-0.075816386,9.49939412,2.670332918,1.1043257,-1.058524173,2.157760814,22.95
51:53.7,-0.049480168,9.437942944,2.588930062,-1.455470738,0.893129771,1.625954198,22.95
51:53.7,-0.068633781,9.431558407,2.549824768,-3.557251908,3.905852417,0.491094148,22.95
51:53.8,-0.138863696,9.469865633,2.375048047,-5.094147583,5.992366412,-0.865139949,22.95
51:53.8,-0.069431848,9.481836641,2.35110603,-6.20610687,6.368956743,-1.529262087,22.95
51:53.9,-0.015961344,9.553662691,2.305616199,-7.58524173,7.333333333,-1.684478372,22.95
51:53.9,-0.118912016,9.651026892,2.398191996,-7.262086514,3.480916031,-0.699745547,22.94333333
51:54.0,-0.245006637,9.627084875,2.472412248,-5.867684478,-4.875318066,2.328244275,22.93666667
51:54.0,-0.250593107,9.386068575,2.636016028,-5.218829517,-10.79898219,6.025445293,22.94333333
51:54.0,-0.109335209,9.356540088,2.734178296,-7.419847328,-7,6.463104326,22.95666667
51:54.2,0.022345882,9.489817314,2.637612162,-12.79898219,2.608142494,2.572519084,22.97
51:54.2,0.133277226,9.374097567,2.803610144,-16.07379135,11.06615776,-4.921119593,22.97
51:54.3,0.148440503,9.293492778,3.059789722,-17.3562341,17.55725191,-6.361323155,22.97
51:54.3,0.062249243,9.079610763,3.632003918,-16.64122137,22.32569975,-4.307888041,22.97666667
51:54.4,-0.260169914,9.161013619,3.88419316,-15.46310433,26.30025445,1.083969466,22.98333333
51:54.4,-0.573810331,9.209695719,4.426080802,-15.90839695,17.1475827,2.193384224,22.98333333
51:54.5,-0.572214197,9.207301518,4.882575252,-23.47073791,-1.623409669,4.717557252,22.97666667
51:54.5,-0.160411511,9.408414457,5.293579871,-39.48600509,-11.12977099,10.45801527,22.96333333
51:54.5,0.005586471,9.217676392,4.948814832,-56.88804071,12.65648855,17.4351145,22.95666667
51:54.6,-0.295284871,9.002198242,4.770047774,-66.98727735,53.86768448,16.58524173,22.95666667
51:54.6,-1.016737638,8.386090348,4.521848869,-70.54452926,88.24681934,7.893129771,22.96333333
51:54.7,-1.69669091,7.622340019,4.912901807,-69.35877863,91.04071247,-4.770992366,22.97
51:54.7,-1.738190405,6.654284481,4.698221724,-66.9821883,84.72010178,-12.99236641,22.97
51:54.8,-1.882640572,6.212953308,4.250506014,-57.61068702,75.62340967,-15.00508906,22.97
51:54.8,-1.96085116,6.76920616,3.365449467,-40.8346056,71.50890585,-10.8524173,22.96333333
51:54.9,-2.709438212,7.829837496,2.961627454,-19.61068702,53.75318066,-3.022900763,22.95666667
51:54.9,-2.861869051,8.462704801,2.968810059,0.809160305,29.79643766,0.167938931,22.96333333
51:54.9,-2.99993468,8.601568498,3.228979972,15.97455471,2.152671756,-0.419847328,22.97666667
51:55.0,-2.683101994,8.28792808,3.743733329,28.72010178,-17.14503817,-2.806615776,22.97666667
51:55.0,-2.709438212,7.733271362,4.436455676,34.52417303,-38.25445293,1.893129771,22.96333333
51:55.1,-2.588930062,7.261613635,5.062938444,35.99745547,-49.57506361,5.010178117,22.95
51:55.1,-2.314394938,7.386910189,5.276820459,34.82697201,-44.29007634,5.811704835,22.95
51:55.2,-2.180319645,7.983066402,5.306348946,37.16793893,-31.72264631,3.155216285,22.95
51:55.2,-1.86588116,8.266380265,5.036602226,38.40966921,-19.59541985,5.333333333,22.95
51:55.2,-2.248953426,8.370927071,5.036602226,42.42239186,-23.49109415,6.06870229,22.95
51:55.3,-2.047840487,8.365340601,5.007073739,42.67175573,-29.91348601,4.872773537,22.95666667
51:55.3,-2.015917798,8.401253625,5.288791467,43.13994911,-40.34351145,1.613231552,22.96333333
51:55.4,-1.410982845,8.265582198,5.214571216,37.21119593,-42.8956743,-1.020356234,22.97
51:55.4,-1.232215788,8.284735811,4.882575252,31.54961832,-35.94147583,-0.659033079,22.97
51:55.5,-1.155601335,8.366936735,4.490724247,26.27989822,-26.93129771,-1.872773537,22.97
51:55.5,-1.018333773,8.631895052,4.216987191,22.54452926,-17.14503817,-2.989821883,22.97
51:55.6,-0.968055538,8.729259253,4.147555343,19.5648855,-10.40203562,-6.575063613,22.97
51:55.6,-0.879470076,8.785123958,3.899356437,16.93129771,-4.959287532,-9.539440204,22.96333333
51:55.6,-0.929748311,8.80746984,3.655147868,14.62086514,-2.513994911,-10.73536896,22.95666667
51:55.7,-0.988805286,8.958304545,3.296815686,12.63867684,-3.007633588,-10.15521628,22.95666667
51:55.7,-1.063823604,9.05726488,2.99434821,10.74045802,-3.562340967,-6.188295165,22.96333333
51:55.8,-1.384646627,9.009380847,2.683101994,11.02798982,-6.694656489,-0.559796438,22.96333333
51:55.8,-1.746969145,9.050082275,2.666342582,11.86005089,-13.49872774,4.234096692,22.95666667
51:55.9,-1.820391329,9.128292863,2.770889388,10.97455471,-17.84478372,4.977099237,22.95666667
51:55.9,-1.75973822,9.228051265,2.797225606,9.371501272,-16.07888041,2.389312977,22.96333333
51:55.9,-1.596932507,9.21528219,2.695871069,7.51653944,-13.35368957,-0.951653944,22.97
51:56.0,-1.463655282,9.15782135,2.54344023,7.882951654,-10.28498728,-1.150127226,22.97
51:56.0,-1.500366374,9.12909093,2.60967981,8.040712468,-10.83206107,2.323155216,22.97
51:56.1,-1.559423348,9.173782694,2.545036365,7.613231552,-12.62849873,7.65394402,22.97
51:56.1,-1.771709229,9.397241516,2.473210315,5.246819338,-18.87022901,11.82442748,22.97
51:56.2,-1.793257043,9.601546724,2.079763175,2.10178117,-28.31552163,11.78371501,22.97666667
51:56.2,-1.536279399,9.611123531,1.999956453,-0.41475827,-33.70229008,7.936386768,22.98333333
51:56.3,-1.31760898,9.449115885,1.994369983,-1.623409669,-31.97455471,3.1043257,22.97666667
51:56.3,-1.071804277,9.397241516,2.33115435,-1.778625954,-25.20356234,0.328244275,22.96333333
51:56.3,-1.079784949,9.319030929,2.561795776,-2.386768448,-18.81933842,-0.661577608,22.95
51:56.4,-0.905008228,9.242416475,2.80201401,-3.941475827,-16.76081425,-1.788804071,22.95
51:56.4,-0.832384111,9.153032947,2.960829386,-6.575063613,-13.3307888,-3.788804071,22.95
51:56.5,-0.79806722,9.192138241,3.033453503,-9.460559796,-8.908396947,-6.531806616,22.95
51:56.5,-0.906604362,9.21528219,3.101289217,-11.57251908,-5.127226463,-8.256997455,22.95
51:56.6,-0.997584025,9.019755721,3.036645772,-12.24681934,-4.147582697,-8.223918575,22.95666667
51:56.6,-0.960872933,8.817844714,2.999136613,-10.77862595,-6.040712468,-4.735368957,22.96333333
51:56.6,-0.938527051,8.690952026,3.02307863,-7.852417303,-7.651399491,0.618320611,22.97
51:56.7,-0.809240161,8.718884379,3.05739552,-4.972010178,-8.099236641,6.10178117,22.97
51:56.7,-0.871489404,8.920795386,3.045424512,-3.045801527,-6.295165394,9.394402036,22.97
51:56.8,-0.782105876,9.109937317,3.055001318,-3.053435115,-4.002544529,9.702290076,22.97
51:56.8,-0.778913607,9.227253198,3.098895015,-3.765903308,-1.625954198,7.185750636,22.97
51:56.9,-0.653617053,9.196128577,3.221797367,-4.65394402,0.27735369,3.335877863,22.97
51:56.9,-0.647232515,9.076418494,3.254518123,-4.613231552,0.061068702,1.216284987,22.97
51:56.9,-0.593762012,9.002198242,3.234566443,-3.849872774,-1.704834606,1.702290076,22.97666667
51:57.0,-0.569819995,8.952718075,3.244941317,-2.687022901,-3.007633588,4.002544529,22.98333333
51:57.0,-0.594560079,9.013371183,3.255316191,-1.582697201,-3.702290076,5.185750636,22.98333333
51:57.1,-2.352702165,8.590395557,3.049414848,0.267175573,-12.83969466,-1.529262087,22.97666667
51:57.1,-2.005542924,8.411628499,2.73577443,1.358778626,-11.6259542,-2.437659033,22.95666667
51:57.2,-1.926534269,8.324639172,2.429316618,2.628498728,-0.055979644,-2.526717557,22.94333333
51:57.2,-0.250593107,8.805873706,2.669534851,1.363867684,6.424936387,2.743002545,22.93
51:57.3,-0.570618062,8.963891016,2.904964681,0.402035623,6.297709924,2.636132316,22.94333333
51:57.3,-0.647232515,8.927977991,3.275267871,-0.992366412,-7.521628499,1.445292621,22.95666667
51:57.3,-0.627280835,8.927977991,3.360661064,-0.977099237,-9.933842239,2.374045802,22.97
51:57.4,-0.509166886,8.91680505,3.516284172,-1.165394402,-11.38167939,3.536895674,22.97
51:57.4,-0.374293526,9.026938326,3.455631063,-1.134860051,-4.284987277,3.295165394,22.96333333
51:57.6,-0.419783358,9.012573116,3.389391484,-1.363867684,4.692111959,2.575063613,22.95666667
51:57.7,-0.465273189,9.352549752,3.094106612,1.941475827,7.440203562,-0.750636132,22.95666667
51:57.7,-0.157219242,9.385270508,2.94247384,3.783715013,3.259541985,0.96437659,22.96333333
51:57.8,-0.407014282,9.661401766,3.089318209,2.569974555,7.79389313,-1.465648855,22.97
51:57.8,-0.470061593,9.473855969,3.217807031,-1.007633588,9.717557252,-4.491094148,22.96333333
51:57.9,-0.793278817,9.425173869,3.363853333,-4.010178117,11.49618321,-7.636132316,22.95666667
51:57.9,-0.394245207,9.157023283,3.078145268,-4.213740458,4.55216285,-5.944020356,22.95666667
51:58.0,-0.371899325,9.07163009,3.161144259,-3.455470738,0.582697201,-2.745547074,22.96333333
51:58.0,-0.252987309,9.074024292,3.141990645,-1.763358779,-3.010178117,-1.188295165,22.97
51:58.0,-0.012769076,9.15223488,3.308786694,0.402035623,-1.65648855,0.852417303,22.97666667
51:58.1,0.021547815,9.095572107,3.189874679,0.837150127,3.549618321,0.185750636,22.98333333
51:58.1,0.006384538,9.055668746,3.236162577,-0.445292621,5.65394402,2.928753181,22.98333333
51:58.2,-0.47644613,8.983044629,3.137202242,-2.073791349,2.203562341,-0.002544529,22.97666667
51:58.2,-0.488417139,9.168994291,3.330334509,-0.575063613,-5.600508906,-0.081424936,22.97
51:58.3,-0.636857642,9.232839669,3.297613753,0.473282443,-6.338422392,-3.486005089,22.97
51:58.3,-0.444523442,9.250397148,3.232970308,1.333333333,-2.844783715,-3.167938931,22.97
51:58.3,-0.501186214,9.225657064,3.226585771,-2.03562341,0.078880407,-1.852417303,22.97
51:58.4,-0.490013273,9.205705383,3.21541283,-3.386768448,5.091603053,-3.351145038,22.97
51:58.4,-0.22665109,9.241618408,3.391785685,-6.053435115,12.91348601,-0.022900763,22.96333333
51:58.5,-0.29847714,9.007784713,3.175509469,-6.305343511,20.71246819,1.396946565,22.95666667
51:58.5,-0.521935962,8.918401184,3.316767367,-5.778625954,19.72264631,5.178117048,22.95666667
51:58.6,-0.805249825,8.675788749,3.174711401,-3.473282443,11.32061069,4.676844784,22.96333333
51:58.6,-0.612915625,8.564059338,3.150769385,-2.900763359,11.26208651,3.844783715,22.97
51:58.7,-0.415793022,8.570443876,2.869051656,-3.765903308,13.97455471,2.928753181,22.97
51:58.7,-0.580992936,8.765172278,2.934493168,-3.671755725,17.55725191,1.870229008,22.97666667
51:58.7,-0.828393774,8.896055302,3.093308545,-1.62086514,12.92875318,1.384223919,22.98333333
51:58.8,-1.042275789,8.8936611,3.198653418,1.292620865,6.641221374,2.267175573,22.98333333
51:58.8,-0.737414111,8.934362528,3.118846696,2.928753181,-2.969465649,4.407124682,22.97666667
51:58.9,-0.541089575,8.854555806,2.89937821,2.974554707,-0.801526718,10.7480916,22.97
51:58.9,-0.442927307,8.780335555,2.695073002,4.409669211,8.778625954,9.547073791,22.97
51:59.0,-0.300871342,8.631096985,2.841119303,6.62086514,18.00763359,12.26463104,22.97
51:59.0,-0.545877979,9.109937317,2.601699137,7.145038168,14.29770992,1.132315522,22.97
51:59.0,-0.273737056,9.544085885,3.122038965,2.201017812,-5.333333333,-4.882951654,22.97
51:59.1,-1.069410075,9.861716638,2.987165605,-5.226463104,-24.60814249,-21.25445293,22.96333333
51:59.1,-0.975238143,9.467471431,3.529851314,-6.391857506,-29.1221374,-21.60814249,22.95666667
51:59.2,-1.04786226,9.151436812,3.242547115,-4.043256997,-23.02798982,-15.55725191,22.95666667
51:59.2,-0.835576379,9.256781685,3.13480804,-1.10178117,-11.08651399,-3.526717557,22.96333333
51:59.3,-1.138043856,9.444327482,3.038241907,-3.488549618,-15.65648855,-2.27735369,22.97
51:59.3,-1.144428394,9.582393111,3.064578125,-6.521628499,-14.58015267,-6.834605598,22.97
51:59.3,-0.914585034,9.049284208,3.03744384,-8.445292621,-11.2519084,-8.536895674,22.97
51:59.4,-0.467667391,8.689355892,2.618458549,-8.307888041,2.503816794,-0.633587786,22.96333333
51:59.4,-0.630473104,8.441156986,2.430114685,-5.34351145,18.18575064,13.65648855,22.95666667
51:59.5,-0.911392765,8.677384884,2.448470231,0.557251908,27.34096692,22.63867684,22.95666667
51:59.5,-1.094948226,9.045293872,2.661554179,7.302798982,26.77099237,22.5826972,22.96333333
51:59.6,-1.114899906,9.520143868,2.814783085,12.22137405,9.251908397,14.33333333,22.96333333
51:59.6,-0.931344446,9.55685496,3.093308545,10.6870229,-4.572519084,4.178117048,22.95666667
51:59.6,-0.94730579,9.558451095,3.383006946,8.198473282,-9.715012723,-5.913486005,22.95
51:59.7,-0.660001591,9.303867651,3.756502405,3.376590331,-3.493638677,-10.93384224,22.95
51:59.7,-0.600944617,9.294290845,3.476380811,3.132315522,0.882951654,-11.68447837,22.95
51:59.8,-0.54827218,9.43634681,3.301604089,1.493638677,-2.208651399,-3.913486005,22.95666667
51:59.8,-1.00476663,9.406818323,2.772485522,-0.399491094,-9.44783715,-4.854961832,22.96333333
51:59.9,-0.951296126,9.424375802,2.664746448,-2.094147583,-17.57760814,-5.628498728,22.96333333
51:59.9,-0.909796631,9.101158577,2.406970736,-4.445292621,-23.15521628,-10.33842239,22.95666667
52:00.0,-0.371899325,8.8936611,2.632025692,-6.699745547,-21.69720102,-4.468193384,22.95
52:00.0,-0.217074284,8.622318245,2.506729138,-4.903307888,-15.69974555,2.684478372,22.95
52:00.0,-0.130084957,8.793902698,2.968810059,-2.475826972,-12.29770992,9.391857506,22.95
52:00.1,-0.46208092,9.047688074,2.974396529,3.175572519,-14.97201018,15.2086514,22.96333333
52:00.1,-0.735817977,9.200118913,3.201845687,5.348600509,-20.69974555,14.78625954,22.97666667
52:00.2,-0.751779321,9.257579753,2.630429557,10.92875318,-18.72010178,12.76590331,22.97666667
52:00.2,-0.940123185,9.268752694,2.854686446,15.57251908,-13.87531807,2.055979644,22.96333333
52:00.3,-0.549868315,9.473057902,2.627237288,20.20356234,-6.788804071,-4.256997455,22.95666667
52:00.3,-0.492407475,9.768342773,3.106875688,20.21374046,-5.455470738,-3.671755725,22.96333333
52:00.4,0.015163277,9.805053866,2.648785103,15.8346056,-1.643765903,-0.625954198,22.97
52:00.4,0.165199915,9.682151514,2.616064347,9.038167939,-3.488549618,7.402035623,22.97
52:00.4,0.118912016,9.253589417,2.261722502,1.078880407,-5.363867684,9.773536896,22.97
52:00.5,-0.10614294,9.163407821,2.499546533,-10.16030534,-11.7913486,15.8778626,22.97
52:00.5,-1.086169486,9.011775049,2.229001746,-12.30534351,-12.65394402,6.954198473,22.97
52:00.6,-3.995922571,11.42113999,0.746990918,5.753180662,-49.34351145,-78.70992366,22.96333333
52:00.6,-7.108384729,10.7268215,-1.079784949,3.315521628,-47.80152672,-99.35877863,22.95666667
52:00.7,-5.101245671,10.85052192,0.107739075,5.811704835,-25.49363868,-90.43765903,22.95
52:00.7,-1.650403011,9.157023283,1.8746599,-10.4173028,26.21119593,0.318066158,22.95
52:00.8,0.774125203,9.552864624,3.58571602,-1,32.58015267,19.33842239,22.96333333
52:00.8,-0.705491423,9.3732995,3.108471822,-6.109414758,4.473282443,8.41475827,22.97666667
52:00.8,-1.102130831,8.543309591,2.731784094,-8.743002545,-14.46310433,1.386768448,22.98333333
52:00.9,-0.296881006,8.714095976,2.651179305,-5.513994911,-22.21628499,-0.078880407,22.97666667
52:01.0,0.182757393,8.731653455,2.315193005,-3.638676845,-15.36132316,23.22137405,22.96333333
52:01.0,-0.486821004,9.091581771,2.589728129,-6.954198473,-24.31552163,31.72264631,22.95666667
52:01.0,-0.492407475,9.46507723,2.875436194,-13.24936387,-40.65139949,29.78371501,22.95666667
52:01.2,-0.250593107,9.749987227,3.449246525,-17.33842239,-49.21374046,14.7913486,22.96333333
52:01.3,0.641646045,9.410010592,3.504313163,-18.66412214,-32.61577608,6.643765903,22.97666667
52:01.4,0.743798649,8.985438831,3.484361483,-14.71755725,-4,7.93129771,22.97666667
52:01.4,0.394245207,8.66701001,3.492342155,-9.312977099,10.12977099,7.519083969,22.97666667
52:01.5,0.37030319,8.56645354,3.819549715,-3.045801527,11.42493639,6.34351145,22.97
52:01.7,0.474849996,8.573636145,4.106853914,-2.178117048,13.04834606,4.750636132,22.96333333
52:01.8,-0.349553442,8.707711438,4.351062484,-8.811704835,7.511450382,-7.702290076,22.96333333
52:01.9,-1.914563261,8.836998328,4.663106767,-22.66157761,2.597964377,-47.2519084,22.95666667
52:02.1,-3.197057284,8.299899089,4.75408643,-29.03307888,-28.03307888,-88.03307888,22.97
52:02.1,-3.857058875,7.516197078,5.039794495,-23.55216285,-65.97709924,-114.7480916,22.96333333
52:02.2,-3.788425094,6.68620717,5.208984745,-10.60814249,-104.9083969,-114.475827,22.97666667
52:02.4,-3.270479468,5.894524487,5.306348946,7.941475827,-116.6844784,-105.6895674,22.95666667
52:02.4,-1.882640572,5.669469531,5.404511214,40.81170483,-97.47073791,-72.8524173,22.96333333
52:02.4,-0.695914616,5.808333228,5.466760457,76.09414758,-72.75826972,-32.55979644,22.95666667
52:02.5,-0.300073275,6.857791622,5.869784403,99.05343511,-48.2519084,4.180661578,22.97
52:02.5,-0.62009823,7.797914807,6.134742721,99.29770992,-28.79643766,16.28753181,22.95666667
52:02.5,-0.954488395,8.53213665,6.374960954,93.64631043,-7.335877863,23.53435115,22.94333333
52:02.7,-1.381454358,8.964689083,6.444392802,82.50127226,8.709923664,26.2519084,22.93
52:02.7,-1.365493014,8.904834041,5.936023983,66.40203562,19.72519084,28.56743003,22.93
52:02.8,-0.897825623,8.95112194,5.349444576,50.3129771,33.15267176,34.08396947,22.93
52:02.9,-0.428562097,9.091581771,4.15393988,32.70992366,59.09160305,42.89058524,22.93666667
52:02.9,-0.438138904,9.82101521,3.269681401,21.5216285,79.59033079,50.41221374,22.93666667
52:03.0,-1.064621672,10.32060529,2.667938717,13.3129771,83.66412214,51.16030534,22.93666667
52:03.2,-1.419761584,9.737218152,2.805206278,3.857506361,70.24427481,37.29516539,22.93666667
52:03.2,-1.897803849,9.44193328,3.328738375,-1.480916031,57.03816794,12.91603053,22.94333333
52:03.4,-2.17313704,8.814652445,3.985547697,-6.460559796,50.64122137,-10.24173028,22.95
52:03.4,-1.868275362,8.729259253,4.204218115,-7.139949109,33.70737913,-20.7913486,22.95
52:03.4,-1.185129822,8.031748503,4.250506014,-7.34605598,18.59033079,-14.96437659,22.95
52:03.6,-0.466071257,7.735665564,4.086104167,-4.358778626,6.229007634,-4.020356234,22.95
52:03.6,-0.686337809,8.683769421,4.036623999,8.223918575,8.730279898,15.44020356,22.94333333
52:03.6,-1.207475704,9.927956217,3.954423075,18.19338422,15.59796438,30.34605598,22.93666667
52:03.8,-1.798045447,11.20885411,3.963201815,23.71501272,22.39185751,38.70992366,22.93666667
52:03.8,-1.786074438,10.60232302,3.508303499,10.3740458,5.671755725,21.42748092,22.93666667
52:03.9,-1.944091748,10.21765462,3.37023787,0.020356234,-13.03562341,4.437659033,22.93666667
52:04.1,-1.644018473,9.149840678,2.76450485,-10.24427481,-44.40966921,-20.98473282,22.92333333
52:04.1,-1.290474695,8.642269926,2.798023674,-5.165394402,-46.59796438,-22.28244275,22.91666667
52:04.1,-0.404620081,7.814674219,2.501142668,-0.62086514,-45.34860051,-19.42748092,22.91
52:04.2,-0.026336218,8.078834469,2.786850732,7.748091603,-29.01272265,1.038167939,22.91
52:04.2,-0.17796899,9.084399166,3.226585771,12.34351145,-15.19083969,18.18320611,22.91
52:04.2,-0.480436466,9.874485714,3.587312154,11.82697201,-2.773536896,29.2086514,22.91
52:04.3,-0.641646045,11.01731797,3.447650391,11.29007634,4.41475827,35.06870229,22.91
52:04.4,-0.787692346,12.53204956,3.498726693,11.12468193,6.307888041,42.63613232,22.91
52:04.5,-0.895431421,11.41714965,3.303200224,6.078880407,-8.941475827,24.06361323,22.90333333
52:04.6,-0.916181169,9.685343783,3.535437785,4.852417303,-28.92111959,-0.193384224,22.90333333
52:04.6,-0.912190833,7.510610608,3.567360474,4.017811705,-50.78371501,-29.15521628,22.90333333
52:04.7,-1.249773267,8.001421948,3.726973918,9.20610687,-69.20356234,-33.44274809,22.90333333
52:04.8,-1.219446712,8.240842114,3.131615771,13.6870229,-98.7735369,-38.36895674,22.89666667
52:04.8,-1.039881588,8.67259648,2.398990063,19.69720102,-122.9389313,-40.91348601,22.89
52:04.8,-0.631271171,9.066841687,1.78288217,27.18575064,-131.1170483,-41.43256997,22.89666667
52:05.0,-0.664789994,9.646238489,1.545856205,29.72773537,-118.221374,-39.16793893,22.90333333
52:05.1,-0.791682682,10.1450305,1.010353101,27.47582697,-111.3587786,-39.92620865,22.90333333
52:05.1,-0.588175541,9.619902271,0.441331173,14.2519084,-87.69720102,-35.81170483,22.89666667
52:05.3,-0.285708065,8.565655473,0.094171932,2.849872774,-54.7913486,-30.93384224,22.89
52:05.3,-0.608925289,8.394071021,0.403822013,5.122137405,-35.36132316,-13.38676845,22.89666667
52:05.4,-1.002372428,9.299877315,0.977632345,18.93129771,-41.2086514,1.788804071,22.89666667
52:05.5,-1.280897888,10.38445067,1.781286035,17.05089059,-53.52671756,9.603053435,22.89666667
52:05.6,-0.717462431,10.29985554,2.268107039,2.027989822,-46.48346056,4.699745547,22.89
52:05.6,-0.118912016,9.39325118,2.532267289,-14.69211196,-21.35114504,-4.27480916,22.89
52:05.7,0.040701428,8.827421521,2.711034347,-15.76590331,-10.67938931,-2.992366412,22.89
52:05.7,-0.138863696,8.297504887,3.019088293,-15.87022901,-12.46310433,-1.989821883,22.89
52:05.8,-0.371101257,8.331821777,3.144384847,-15.36895674,-38.4783715,-1.150127226,22.89
52:06.0,0.611319491,8.394071021,3.357468795,-9.150127226,-61.53180662,-0.216284987,22.89666667
52:06.0,1.06222747,8.502608162,3.171519132,1.743002545,-40.02544529,1.043256997,22.89666667
52:06.2,1.417367383,8.978256226,3.01429989,14.13231552,-4.259541985,2.167938931,22.89666667
52:06.3,0.521137895,9.004592444,2.488373592,15.3740458,26.82697201,-1.269720102,22.89
52:06.3,0.635261507,9.475452104,2.225809477,10.84987277,24.70229008,-5.03307888,22.89
52:06.5,0.639251843,9.394847314,2.234588216,5.178117048,16.57251908,-8.195928753,22.89
52:06.5,0.868297135,9.703699329,2.335942753,-0.353689567,12.88804071,-3.376590331,22.89666667
52:06.5,0.771731002,9.416395129,2.219424939,-2.455470738,12.55979644,2.75826972,22.90333333
52:06.7,0.540291508,9.557653027,2.025494604,-3.610687023,13.22137405,9.480916031,22.91
52:06.7,0.37908193,9.410010592,1.799641581,-1.867684478,14.96946565,7.358778626,22.91
52:06.8,0.237824032,9.362924626,1.71105612,-0.152671756,12.15776081,4.402035623,22.91
52:07.0,0.196324536,9.343771012,1.746171077,2.328244275,4.743002545,0.82697201,22.90333333
52:07.1,0.188343864,9.51375933,1.808420321,3.066157761,3.338422392,-0.409669211,22.89666667
52:07.2,0.165997982,9.572018237,1.871467631,2.666666667,0.076335878,-1.254452926,22.89666667
52:07.3,0.23542983,9.623892607,1.741382674,0.300254453,0.122137405,-0.791348601,22.89666667
52:07.3,0.193930334,9.616710002,1.623268726,-0.488549618,-1.933842239,0.13740458,22.89666667
52:07.3,0.090979663,9.682151514,1.486001164,-0.837150127,-3.249363868,0.20610687,22.89
52:07.4,-0.04309563,9.649430758,1.489193433,-1.396946565,-5.333333333,-0.679389313,22.89666667
52:07.4,-0.039105294,9.626286808,1.517923853,-2.72519084,-8.081424936,-1.661577608,22.90333333
52:07.4,0.025538151,9.595162187,1.627259062,-4.470737913,-10.31043257,-3,22.91
52:07.6,0.019153613,9.682151514,1.752555615,-7.117048346,-10.57506361,-5.045801527,22.91
52:07.7,-0.404620081,9.666190169,1.998360319,-12.80661578,-11.08142494,-15.80152672,22.91
52:07.9,-0.647232515,9.712478068,2.001552588,-19.95165394,-5.529262087,-26.30025445,22.91
52:07.9,-0.667184196,9.247204879,1.991975781,-18.90076336,-4.65394402,-29.27226463,22.90333333
52:07.9,-0.288900334,8.62950085,1.869073429,-13.12977099,-6.720101781,-21.71755725,22.89666667
52:08.1,0.035913025,7.833827832,1.900996118,-4.071246819,-16.83206107,-11.92875318,22.89
52:08.1,0.051076302,8.369330937,2.102109058,8.391857506,-9.735368957,11.02544529,22.89666667
52:08.1,0.134075293,8.783527824,2.236982418,20.31806616,0.908396947,31.92111959,22.90333333
52:08.2,0.079008655,9.294290845,2.430114685,31.07124682,10.28244275,52.33842239,22.91
52:08.3,-0.073422184,9.189744039,2.467623844,29.23664122,6.139949109,53.33842239,22.91
52:08.3,-0.175574788,9.401231852,2.472412248,24.55216285,12.32315522,50.7735369,22.90333333
52:08.5,-0.380678064,9.540893616,2.418941744,18.86005089,20.57506361,44.30534351,22.90333333
52:08.6,-0.031124622,9.449913953,2.327962081,9.603053435,17.39949109,25.93384224,22.90333333
52:08.7,-0.023143949,9.473057902,2.228203678,-1.452926209,5.521628499,4.234096692,22.90333333
52:08.8,0.304861678,9.622296472,2.10131099,-13.35368957,-4.251908397,-19.04580153,22.90333333
52:08.9,0.313640417,9.646238489,1.919351664,-19.06615776,-2.358778626,-30.24936387,22.90333333
52:08.9,0.481234534,9.531316809,1.88902511,-16.35114504,-3.139949109,-28.2086514,22.91
52:09.1,0.570618062,9.440337146,1.968033765,-11.00763359,-4.872773537,-20.06615776,22.91
52:09.2,0.616107894,9.294290845,2.093330318,-1.916030534,-3.41475827,-4.231552163,22.91666667
52:09.3,0.526724365,9.424375802,2.11008973,5.31043257,-0.020356234,10.58015267,22.91666667
52:09.5,0.340774703,9.507374792,2.071782503,10.34351145,2.048346056,19.8956743,22.91666667
52:09.6,0.229843359,9.641450085,2.033475277,8.218829517,1.664122137,16.00508906,22.91
52:09.7,0.228247225,9.593566052,2.016715865,1.765903308,0.307888041,3.661577608,22.90333333
52:09.8,0.296881006,9.562441431,1.999956453,-5.076335878,0.58524173,-7.424936387,22.89666667
52:09.8,0.316034619,9.55685496,1.954466622,-8.801526718,0.234096692,-13.50127226,22.89666667
52:09.9,0.403822013,9.579200842,1.956860824,-10.28244275,0.432569975,-15.3740458,22.90333333
52:10.0,0.401427812,9.52812454,1.944889815,-9.539440204,0.165394402,-14.28753181,22.91
52:10.0,0.469263525,9.489817314,1.929726538,-6.440203562,-0.363867684,-8.717557252,22.90333333
52:10.1,0.453302181,9.42756807,1.924140068,-2.959287532,-0.417302799,-2.529262087,22.89666667
52:10.2,0.422177559,9.416395129,1.928928471,0.536895674,-0.111959288,3.671755725,22.89
52:10.3,0.270544788,9.419587398,1.956860824,3.180661578,0.979643766,7.371501272,22.89666667
52:10.5,0.207497477,9.545682019,2.055023092,4.763358779,-0.374045802,8.160305344,22.89666667
52:10.6,0.12928689,9.715670337,2.155579561,2.531806616,0.524173028,5.610687023,22.91
52:10.6,0.185151595,9.658209497,2.181117712,-2.185750636,-6.882951654,4.272264631,22.92333333
52:10.8,0.229843359,9.606335128,2.232992082,-6.982188295,-9.338422392,3.870229008,22.94333333
52:10.9,0.394245207,9.489019246,2.175531242,-12.67684478,-8.053435115,-5.122137405,22.94333333
52:11.1,0.37908193,9.316636727,2.209050065,-11.5826972,-2.475826972,-9.743002545,22.94333333
52:11.2,0.347957308,9.259175887,2.138022083,-5.272264631,-1.279898219,-8.150127226,22.93666667
52:11.3,0.208295544,9.16660009,2.206655863,3.743002545,-0.62086514,3.236641221,22.93666667
52:11.5,0.229843359,9.342972945,2.15318536,7.597964377,3.949109415,8.139949109,22.93
52:11.5,0.188343864,9.473057902,2.111685864,7.877862595,10.42239186,7.849872774,22.93
52:11.5,0.150834705,9.586383447,2.076570907,9.567430025,8.099236641,9.043256997,22.93
52:11.6,0.140459831,9.688536051,2.199473258,10.1043257,2.880407125,9.480916031,22.93
52:11.7,0.204305208,9.64863269,2.227405611,8.536895674,-1.292620865,10.31806616,22.92333333
52:11.8,0.290496468,9.584787313,2.192290653,4.292620865,-4.117048346,8.348600509,22.92333333
52:12.0,0.382274198,9.714074202,1.947284017,-0.356234097,-0.407124682,3.435114504,22.92333333
52:12.0,0.455696383,9.390856978,1.881044438,-3.860050891,-2.65394402,1.119592875,22.93666667
52:12.1,0.54827218,9.190542106,1.764526624,-4.692111959,-2.10178117,1.720101781,22.94333333
52:12.3,0.555454785,9.10036051,1.741382674,-9.384223919,-3.328244275,-3.147582697,22.95666667
52:12.3,0.556252852,9.113129586,1.84592948,-9.195928753,2.849872774,-9.050890585,22.95
52:12.4,0.497993945,9.097168241,1.911370992,-8.31043257,5.470737913,-11.70229008,22.94333333
52:12.4,0.423773694,8.899247571,1.978408639,-0.465648855,3.06870229,-3.521628499,22.93666667
52:12.5,0.471657727,9.146648409,1.931322673,3.440203562,-1.094147583,4.002544529,22.94333333
52:12.7,0.506772685,9.423577734,1.972024101,5.844783715,-1.893129771,7.740458015,22.94333333
52:12.8,0.501984281,9.566431767,2.032677209,4.687022901,3.284987277,7.676844784,22.94333333
52:12.9,0.322419157,9.569624036,1.981600907,2.236641221,3.804071247,5.712468193,22.94333333
52:13.1,0.230641427,9.49939412,1.939303345,-0.816793893,2.147582697,1.442748092,22.95666667
52:13.2,0.201112939,9.473855969,1.857900488,-1.666666667,-0.531806616,-2.091603053,22.95666667
52:13.2,0.272938989,9.473855969,1.796449312,-1.62086514,-2.13740458,-5.055979644,22.95
52:13.4,0.30725588,9.552864624,1.773305363,-0.122137405,-2.328244275,-5.216284987,22.95
52:13.4,0.381476131,9.563239498,1.835554606,0.508905852,-3.435114504,-3.139949109,22.95
52:13.5,0.3846684,9.563239498,1.885034774,0.48346056,-2.025445293,-0.707379135,22.95
52:13.6,0.347957308,9.500192188,1.915361328,0.119592875,-0.213740458,2.674300254,22.95
52:13.6,0.266554451,9.49939412,1.898601917,-0.208651399,0.633587786,4.452926209,22.95666667
52:13.6,0.208295544,9.494605717,1.867477295,-0.422391858,0.93129771,5.913486005,22.97
52:13.7,0.229843359,9.553662691,1.837948808,-0.419847328,0.511450382,6.139949109,22.97
52:13.8,0.219468486,9.593566052,1.796449312,-0.496183206,0.089058524,5.834605598,22.97
52:13.9,0.146844368,9.600748657,1.810814522,-1.129770992,-0.41221374,3.8956743,22.97
52:14.0,0.146844368,9.556056893,1.856304354,-1.590330789,-0.842239186,1.178117048,22.97
52:14.1,0.193930334,9.510567061,1.945687882,-1.926208651,-1.641221374,-1.239185751,22.97
52:14.2,0.271342855,9.489019246,1.944091748,-1.974554707,-2.524173028,-1.641221374,22.97
52:14.4,0.277727393,9.472259835,1.900198051,-1.661577608,-3.264631043,-0.282442748,22.95666667
52:14.4,0.352745711,9.63426748,2.303221997,-1.374045802,-3.259541985,1.867684478,22.95666667
52:14.5,0.478042265,9.476250171,2.70704401,-4.262086514,1.157760814,2.547073791,22.95666667
52:14.6,0.408610417,9.802659664,2.912147286,-9.75826972,10.38676845,1.513994911,22.97
52:14.6,0.288102266,9.486625045,2.564189978,-13.81170483,22.26717557,-0.933842239,22.97
52:14.7,0.122104285,9.327011601,2.103705192,-12.17048346,31.84987277,-1.659033079,22.97
52:14.7,-0.185151595,8.92239152,2.041455949,-8.684478372,31.98982188,-1.745547074,22.97
52:14.8,-0.515551424,9.077216561,1.999158386,-8.330788804,24.63867684,-4.073791349,22.97
52:15.0,-1.055044865,9.208099585,2.188300317,-4.048346056,15.41984733,-4.549618321,22.95666667
52:15.0,-1.158793604,9.449115885,2.094128385,2.804071247,-0.468193384,2.778625954,22.95
52:15.0,-1.14841873,9.49380765,2.040657882,13.90076336,-4.636132316,11.05852417,22.94333333
52:15.2,-0.891441085,9.717266471,2.048638554,20.56743003,-0.709923664,15.87022901,22.95
52:15.3,-1.365493014,9.489817314,2.490767794,18.82188295,1.427480916,10.49363868,22.95
52:15.3,-2.044648218,9.474654036,2.939281571,5.1043257,-8.201017812,-0.145038168,22.95
52:15.5,-2.626439221,9.564835632,3.117250562,-12.36641221,-24.67430025,-11.48600509,22.95
52:15.6,-1.970427966,10.54007378,3.003126949,-30.31552163,-23.80407125,-25.0610687,22.95
52:15.6,-0.396639408,10.51054529,2.637612162,-33.80407125,-6.442748092,-20.68193384,22.95
52:15.7,0.952892261,10.73799445,2.08694578,-30.22391858,8.763358779,-9.407124682,22.95
52:15.7,1.597730575,10.06522378,1.648806877,-14.67175573,20.96946565,12.77608142,22.95
52:15.8,1.476424357,9.762756303,1.478020492,0.575063613,25.61832061,27.17811705,22.95
52:16.0,0.505974618,8.187371611,1.869871497,16.96692112,24.3740458,44.48854962,22.94333333
52:16.1,-0.912190833,8.568847742,2.434105021,27.96692112,29.66412214,41.7480916,22.93666667
52:16.1,-2.715024683,9.604738993,3.307988627,25.20101781,9.544529262,16.78117048,22.93666667
52:16.2,-3.20104762,11.75153982,3.683878288,10.1043257,-16.75318066,-23.64631043,22.93
52:16.2,-2.851494177,12.60706788,3.633600053,-9.910941476,-55.30788804,-53.25445293,22.92333333
52:16.4,-1.849121749,12.78104653,3.193865015,-26.44783715,-66.75063613,-67.72010178,22.91
52:16.5,-0.93294058,11.11308604,2.725399556,-48.69211196,-53.72773537,-84.54198473,22.91
52:16.6,-0.142854032,9.705295463,2.082955444,-61.77099237,-29.25954198,-68.01272265,22.90333333
52:16.8,0.141257898,8.912814714,1.916957463,-36.95928753,11.4351145,-8.541984733,22.90333333
52:16.9,0.090979663,9.841764958,1.806026119,3.272264631,34.12722646,64.92111959,22.90333333
52:17.0,-0.621694364,9.401231852,2.264914771,37.69974555,60.61832061,108.7124682,22.91
52:17.1,-1.810814522,9.262368156,3.005521151,36.8956743,50.04071247,98.92111959,22.91
52:17.1,-3.095702747,9.439539079,3.88419316,28.70737913,32.59033079,78.31806616,22.91
52:17.1,-3.646369128,10.77789781,4.240929207,19.46564885,-0.928753181,48.78880407,22.91
52:17.2,-3.362257198,12.51529014,3.848280135,9.824427481,-23.67430025,26.55216285,22.91
52:17.3,-2.723803422,13.24711779,3.584917952,-1.323155216,-35.9821883,-0.020356234,22.91
52:17.4,-2.032677209,12.85446871,2.604093339,-28.2519084,-67.91348601,-41.04580153,22.90333333
52:17.6,-1.353522005,11.10829764,1.327185787,-63.93638677,-90.15776081,-80.05597964,22.89666667
52:17.7,-0.835576379,10.37327773,0.190738066,-85.19847328,-52.92366412,-96.36132316,22.89
52:17.8,-0.252987309,9.694920589,0.637655709,-62,-24.34351145,-66.71755725,22.87666667
52:17.9,0.572214197,8.815450513,1.938505278,10.43256997,-14.22137405,-2.124681934,22.86333333
52:17.9,1.318407048,8.13868951,3.339113249,78.63358779,-51.45547074,55.94402036,22.85
52:18.1,1.618480322,8.636683455,4.690241052,113.4529262,-31.23409669,92.93129771,22.85666667
52:18.2,-0.095768066,9.09477404,5.353434912,89.99745547,-20.18066158,91.88549618,22.86333333
52:18.3,-0.992795622,9.489817314,5.106034074,52.41984733,-28.53180662,68.62086514,22.87666667
52:18.4,-1.7310078,10.13385756,3.604869633,5.374045802,-70.72773537,16.72773537,22.87666667
52:18.5,-0.635261507,11.96542183,1.893813513,-27.11195929,-89.17048346,-41.71501272,22.87666667
52:18.6,-0.067037646,12.00692133,0.896229488,-65.60559796,-92.33587786,-107.5801527,22.87666667
52:18.7,-0.07741252,10.69410075,0.525926298,-78.42748092,-78.78371501,-129.3231552,22.88333333
52:18.7,-0.001596134,8.868921016,0.636059574,-83.07124682,-65.06870229,-126.0203562,22.89
52:18.7,0.281717729,8.845777067,0.842758984,-69.1221374,-46.54452926,-83.76590331,22.88333333
52:18.9,1.039881588,9.482634709,1.13963999,-59.33587786,-22.71501272,-40.01017812,22.87666667
52:18.9,1.217850578,10.19530874,1.940101412,0.27480916,30.04834606,28.05597964,22.87
52:19.0,0.81243243,10.68931235,3.126029301,63.19847328,62.97201018,84.94910941,22.87
52:19.2,0.794874951,9.474654036,3.319959635,102.6743003,45.13740458,110.5368957,22.87
52:19.2,0.611319491,9.471461768,3.236960645,90.02290076,30.58524173,100.0916031,22.87
52:19.4,0.381476131,9.372501432,2.861070984,71.39185751,31.5648855,87.50381679,22.87
52:19.4,-0.354341846,11.06440394,3.101289217,60.59287532,48.21628499,77.28753181,22.87
52:19.5,-0.734221842,12.28544679,2.988761739,46.53180662,30.19338422,55.67684478,22.87666667
52:19.6,-0.506772685,13.0691488,2.126849141,-1.417302799,-10.0610687,-22.98473282,22.88333333
52:19.7,-0.022345882,12.79940208,1.822785531,-43.60559796,-25.59033079,-99.70737913,22.89
52:19.7,0.418187223,11.94706628,1.586557633,-91.66157761,-38.50127226,-157.129771,22.89
52:19.8,0.441331173,10.85690646,1.37506982,-106.3791349,-35.99491094,-154.1628499,22.89
52:19.9,0.468465458,10.01334941,1.013545369,-112.3536896,-33.54707379,-136.4681934,22.89666667
52:19.9,0.676761003,9.31583866,1.307234106,-81.41475827,-23.40712468,-75.33587786,22.89666667
52:20.0,1.04786226,9.596758321,1.744574943,-40.39949109,-8.984732824,-3.628498728,22.89666667
52:20.1,1.146024528,10.57917907,1.711854187,14.05852417,9.134860051,81.42239186,22.89
52:20.1,0.403023946,11.36288108,1.93212074,33.87022901,31.81424936,111.9618321,22.89
52:20.2,-0.676761003,10.80902243,1.825179732,39.28753181,42.12722646,117.1755725,22.89
52:20.3,-1.413377047,9.484230843,2.058215361,28.62340967,47.52671756,96.00763359,22.89666667
52:20.4,-1.476424357,8.129112703,1.750959481,31.39694656,44.70483461,82.97201018,22.89
52:20.6,-1.155601335,8.53772312,2.517902079,32.14503817,39.80152672,60.1653944,22.89666667
52:20.6,-0.311246216,9.445923617,3.130817704,10.15521628,42.03562341,7.8956743,22.89
52:20.6,0.390254871,10.47463226,2.934493168,-21.31552163,36.78625954,-55.23155216,22.89666667
52:20.8,0.626482768,11.42273612,2.288856787,-49.18320611,32.26208651,-103.2468193,22.89
52:20.9,0.662395793,11.33734293,1.752555615,-68.54961832,5.913486005,-120.2391858,22.89666667
52:20.9,0.867499068,10.11550201,1.600922843,-72.24173028,-2.732824427,-93.68956743,22.90333333
52:21.0,1.187524023,7.627926489,1.644816541,-64.81679389,6.419847328,-49.88804071,22.91
52:21.1,0.85552806,6.342240198,1.944091748,-35.6870229,33.16284987,11.79643766,22.91
52:21.1,0.185949662,8.049305981,2.469219979,-4.582697201,43.0178117,73.07888041,22.91666667
52:21.2,-0.509964954,10.2400005,2.786052665,20.61832061,53.33587786,123.0101781,22.91666667
52:21.3,-1.003170496,11.98776771,2.907358883,39.17557252,72.48346056,153.7328244,22.91666667
52:21.4,-1.181139486,11.24476713,2.538651827,29.2264631,82.35877863,126.0305344,22.91666667
52:21.5,-1.022324109,9.832986218,2.535459558,19.39949109,77.70737913,82.39185751,22.91666667
52:21.6,-0.99040142,8.852959672,2.655169641,8.432569975,54.23409669,42.26717557,22.91666667
52:21.7,-0.289698401,8.931968327,3.105279553,9.234096692,28.41475827,17.55216285,22.91666667
52:21.9,0.203507141,9.140263871,3.24414325,2.697201018,16.1221374,3.524173028,22.91666667
52:22.0,0.737414111,9.350953617,3.047020646,-2.717557252,4.020356234,-6.17302799,22.92333333
52:22.2,0.671174532,9.165003955,2.791639136,-4.488549618,1.246819338,-5.577608142,22.91666667
52:22.3,0.538695374,9.323819332,2.48039292,-0.48346056,-2.944020356,-0.386768448,22.91666667
52:22.4,0.466071257,9.377289836,2.445277962,3.595419847,-2.06870229,4.409669211,22.91
52:22.5,0.372697392,9.362924626,2.48039292,4.96692112,2.699745547,5.783715013,22.91666667
52:22.5,0.400629744,9.445125549,2.53785376,4.376590331,3.65394402,6.521628499,22.92333333
52:22.6,0.403822013,9.54248975,2.520296281,1.218829517,6.692111959,4.335877863,22.93
52:22.8,0.46208092,9.498596053,2.430114685,-2.391857506,12.5826972,-0.776081425,22.93666667
52:22.9,0.611319491,9.481836641,2.387019055,-6.117048346,22.18320611,-5.554707379,22.93666667
52:23.0,0.70628949,9.298281181,2.287260653,-7.083969466,36.56743003,-3.37913486,22.94333333
52:23.2,0.509964954,9.302271517,2.08135931,-0.946564885,51.48346056,11.10941476,22.93666667
52:23.2,0.158815377,9.647036556,1.602518978,4.763358779,60.6692112,23.37913486,22.93666667
52:23.2,-0.191536133,10.25755798,1.272119149,7.198473282,63.67684478,29.35368957,22.93
52:23.3,-0.250593107,10.5735926,1.072602344,2.997455471,62.07379135,24.85750636,22.93
52:23.3,-0.259371847,10.38923907,1.012747302,-0.402035623,62.33842239,20.25699746,22.93
52:23.4,-0.189939998,10.13545369,0.94171932,-3.249363868,64.59287532,15.53435115,22.93
52:23.6,-0.110133276,9.951100167,0.899421757,-8.903307888,69.59796438,12.05089059,22.93
52:23.7,-0.002394202,9.836178487,0.981622681,-14.69465649,81.5826972,14.27480916,22.94333333
52:23.8,-0.11492168,9.445125549,1.196302763,-11.7302799,80.11195929,22.91094148,22.95
52:24.0,-0.181161259,9.254387484,1.661575952,-0.865139949,70.55725191,33.47328244,22.95
52:24.0,-0.299275208,9.331001937,2.070984436,7.603053435,46.17302799,34.14503817,22.94333333
52:24.1,-0.114123612,9.618306136,2.35988477,8.010178117,36.1653944,28.04580153,22.94333333
52:24.1,0.007182605,9.76355437,2.393403593,4.68956743,34.36895674,18.88549618,22.95
52:24.1,0.105344873,9.55685496,2.419739811,3.358778626,39.28244275,13.43002545,22.95
52:24.2,0.087787394,9.313444458,2.297635527,1.267175573,39.91348601,6.765903308,22.95
52:24.3,0.055864705,9.121908325,2.292049056,-1.430025445,35.10178117,-0.44783715,22.95
52:24.4,0.261766048,9.128292863,2.355096366,-5.231552163,24.82697201,-8.368956743,22.94333333
52:24.5,0.53390697,9.164205888,2.583343591,-8.854961832,17.0610687,-11.57251908,22.94333333
52:24.6,0.873085539,9.061255216,2.681505859,-11.32061069,11.88549618,-11.8524173,22.95
52:24.7,1.133255452,9.074822359,2.755726111,-11.29262087,23.74300254,-2.531806616,22.94333333
52:24.9,0.869095203,9.011775049,2.614468213,-3.198473282,38.8524173,21.77862595,22.94333333
52:24.9,0.06304731,9.054072611,2.614468213,9.674300254,43.22900763,46.70483461,22.95
52:24.9,-0.870691337,9.099562443,2.673525187,24.043257,33.52417303,63.37150127,22.97666667
52:25.0,-1.271321082,9.333396139,3.058193587,31.92620865,19.55470738,60.2697201,22.97666667
52:25.0,-1.144428394,9.776323446,3.358266862,34.86513995,16.07124682,52.82697201,22.96333333
52:25.2,-0.94730579,10.00457067,3.63439812,36.2086514,11.97709924,46,22.95
52:25.2,-0.759759993,10.31501882,3.491544088,30.32061069,5.595419847,29.92111959,22.95666667
52:25.3,-0.656011255,10.57678487,3.096500814,20.05089059,-2.694656489,9.796437659,22.96333333
52:25.4,-0.450907979,10.97262621,2.031879142,-12.11450382,-6.936386768,-42.57251908,22.96333333
52:25.4,-0.336784367,10.75475386,1.244984863,-39.52417303,-15.80407125,-90.00763359,22.95666667
52:25.5,-0.225853023,10.17216479,0.723846969,-62.81424936,-28.63104326,-129.5801527,22.95666667
52:25.5,-0.478042265,9.351751685,0.793278817,-64.58778626,-53.43765903,-133.0050891,22.96333333
52:25.5,-0.516349491,8.947929671,0.736616044,-63.55979644,-74.82951654,-124.6437659,22.97
52:25.6,-0.227449158,8.682173287,0.527522432,-57.67175573,-82.67175573,-109.259542,22.96333333
52:25.6,0.355139913,9.064447485,0.51395529,-40.86513995,-66.91603053,-80.23918575,22.95666667
52:25.7,0.635261507,10.41078689,0.92735411,-18.56234097,-45.35368957,-39.31552163,22.95
52:25.7,0.679953271,12.21122653,1.41816545,6.666666667,-35.03307888,7.984732824,22.95
52:25.8,0.556252852,12.99971695,1.826775867,25.29262087,-40.45801527,46.57760814,22.95
52:25.8,0.815624699,12.02368074,2.090138049,36.80407125,-43.97964377,62.01272265,22.95
52:25.9,1.474828223,10.61030369,2.253741829,39.68193384,-36.62849873,58.94147583,22.95666667
52:25.9,2.071782503,9.673372774,2.385422921,35.03562341,-16.39440204,51.79898219,22.96333333
52:25.9,1.845131413,9.126696729,2.077368974,28.15776081,5.262086514,53.63358779,22.97
52:26.0,1.251369401,8.452329928,1.900198051,28.23155216,33.65394402,61.81424936,22.97
52:26.0,0.737414111,7.679002791,1.916159395,35.84223919,54.63104326,77.79898219,22.97
52:26.1,-0.23542983,7.616753548,2.17313704,47.043257,66.42239186,94.92366412,22.97
52:26.1,-1.270523014,7.722098421,2.683900061,52.17048346,55.34605598,99.51145038,22.97
52:26.2,-1.804429985,8.099584216,2.945666109,51.80916031,31.65903308,93.25445293,22.96333333
52:26.2,-1.592942171,8.547299927,3.34150745,47.25954198,5.486005089,75.67430025,22.95666667
52:26.3,-1.098140495,9.406020256,3.601677364,37.11959288,-13.44020356,61.10941476,22.96333333
52:26.3,-0.996785958,10.7244273,3.484361483,24.21119593,-20.38676845,31.96946565,22.97666667
52:26.4,-0.631271171,12.66133645,3.272873669,8.681933842,-23.4173028,-3.664122137,22.98333333
52:26.4,-0.217074284,13.28303081,2.810792749,-12.29770992,-38.1653944,-42.42748092,22.97666667
52:26.4,0.108537142,13.7945919,2.315991073,-37.30788804,-49.51653944,-82.97201018,22.97
52:26.5,0.512359155,13.55277753,1.305637972,-63.84223919,-58.85750636,-120.7684478,22.97
52:26.5,0.60573302,13.1736956,0.611319491,-82.37659033,-65.54707379,-150.9414758,22.97
52:26.6,0.859518396,11.52728293,0.477244198,-94.32061069,-73.47328244,-166.6768448,22.97
52:26.6,1.094150159,9.604738993,1.050256462,-98.79898219,-68.5826972,-165.7328244,22.97
52:26.7,0.914585034,8.817844714,1.212264107,-98.4783715,-48.78880407,-154.9185751,22.96333333
52:26.7,0.509166886,8.67259648,0.996785958,-90.66157761,-36.58524173,-133.1094148,22.95666667
52:26.7,0.160411511,8.182583207,0.529916634,-73.24936387,-36.54198473,-102.8880407,22.95666667
52:26.8,0.323217224,7.601590271,0.514753357,-46.40458015,-35.1221374,-64.48600509,22.96333333
52:26.8,0.395841341,8.000623881,0.895431421,-13.23409669,-26.55216285,-12.53180662,22.96333333
52:26.9,0.297679073,9.199320846,1.208273771,22.44783715,-17.28244275,41.58015267,22.95666667
52:26.9,0.2410163,10.91356923,1.363896879,58.82442748,-7.834605598,93.71755725,22.96333333
52:27.0,0.059056974,12.00851746,1.540269735,92.44020356,11.02798982,125.5776081,22.97666667
52:27.0,0.113325545,12.24554342,2.351904097,111.6793893,31.40458015,127.2442748,22.99
52:27.1,0.656809322,11.3477178,2.955242916,106.1501272,38.55470738,110.0966921,22.97666667
52:27.1,1.06222747,9.651026892,2.598506868,86.21628499,38.99745547,82.06361323,22.96333333
52:27.1,1.272119149,8.599972363,1.857102421,66.36132316,41.71246819,65.46310433,22.95666667
52:27.2,0.359928316,8.384494214,1.607307381,58.15012723,47.17557252,57.40966921,22.96333333
52:27.2,-0.1436521,8.775547152,2.076570907,52.67430025,49.43765903,56.0178117,22.97666667
52:27.3,-0.471657727,9.02294799,2.498748466,48.50381679,51.56743003,57.11959288,22.98333333
52:27.3,-0.270544788,9.142658073,2.759716447,43.71755725,61.75318066,54.80661578,22.97666667
52:27.4,-0.310448149,9.627882943,2.984771403,39.27989822,75.51399491,48.99491094,22.96333333
52:27.4,-0.758163859,10.483411,3.098895015,30.2086514,76.82951654,35.2264631,22.96333333
52:27.5,-1.181139486,11.96063343,2.779668127,20.76335878,62.3562341,16.35877863,22.97666667
52:27.5,-1.419761584,13.10905216,3.017492159,4.358778626,29.08396947,-8.837150127,22.99
52:27.5,-1.064621672,12.83371897,2.681505859,-15.15012723,2.096692112,-38.98727735,22.99
52:27.6,-0.632069238,12.51449208,2.418143677,-36.72519084,-19.18575064,-71.33333333,22.99
52:27.6,-0.08619126,11.18491209,1.636835868,-55.90330789,-24.50636132,-99.78625954,22.98333333
52:27.7,0.044691764,10.20089521,1.173956881,-66.5826972,-30.15521628,-119.6844784,22.97666667
52:27.7,0.274535124,8.713297909,1.029506714,-71.52671756,-34.58015267,-126.3562341,22.97
52:27.8,0.173180587,8.619125977,1.130063184,-71.02290076,-43.82442748,-121.1475827,22.97
52:27.8,0.338380501,9.178571098,1.364694946,-71.63613232,-50.79643766,-104.3918575,22.98333333
52:27.9,0.339976636,9.260772021,1.281695955,-69.34351145,-45.51399491,-84.97455471,22.99666667
52:27.9,0.824403438,8.543309591,1.074198478,-60.06361323,-29.36132316,-59.26463104,23.01
52:27.9,0.980026546,8.4603106,1.142832259,-41.91348601,-9.37913486,-24.93129771,23.00333333
52:28.0,0.996785958,8.980650427,1.439713265,-23.7735369,9.582697201,15.07633588,22.99666667
52:28.0,0.810038228,10.31342268,1.519519987,-0.017811705,26.44020356,59.98982188,22.98333333
52:28.1,0.592963944,11.07078848,1.479616626,29.82951654,46.25445293,96.96183206,22.97666667
52:28.1,0.446119576,12.37802258,1.783680237,62.04834606,66.10941476,116.8524173,22.97666667
52:28.2,0.336784367,12.52327082,2.212242334,73.78625954,67.82188295,111.0254453,22.98333333
52:28.2,0.387860669,11.23838259,2.054225024,65.2086514,41.05343511,92.35114504,22.99
52:28.3,0.367110921,8.473877743,1.561019482,50.78625954,17.22137405,66.38167939,22.99
52:28.3,0.606531087,6.489084566,1.098140495,43.10687023,17.92620865,52.8778626,22.99
52:28.3,0.109335209,6.527391793,1.070208142,41.56997455,51.41221374,43.56234097,22.99
52:28.4,-0.171584452,7.703742875,1.26892688,41.49363868,82.06361323,44.64122137,22.98333333
52:28.4,-0.683943608,9.07163009,1.624066793,44.40203562,105.3129771,41.92875318,22.97666667
52:28.5,-0.695914616,10.30783621,2.220223006,45.95419847,112.4681934,38.8346056,22.97666667
52:28.6,-0.817220833,11.57596503,2.403778467,42.15012723,100.8778626,32.57251908,22.98333333
52:28.7,-0.558647054,10.68372587,2.673525187,19.65648855,70.85496183,3.575063613,22.99
52:28.8,0.002394202,9.665392102,2.946464176,-6.264631043,36.31043257,-26.98473282,22.97666667
52:28.9,0.924959908,8.87929589,2.889003337,-53.32824427,7.180661578,-69.98982188,22.97
52:29.0,0.857124194,8.656635136,2.156377629,-75.04834606,-2.394402036,-67.7302799,22.95
52:29.1,0.76375033,8.068459595,1.25456167,-83.42239186,2.335877863,-55.55725191,22.95
52:29.2,0.181161259,8.540117322,1.011949235,-44.4351145,15.18829517,8.147582697,22.93666667
52:29.4,0.282515796,9.525730339,1.88024637,7.03562341,28.7913486,42.56997455,22.95
52:29.5,0.183555461,9.779515715,2.283270317,45.64631043,3.613231552,77.59033079,22.95
52:29.6,0.017557479,8.725268917,3.139596444,55.21882952,7.185750636,73.11195929,22.95666667
52:29.7,-0.334390165,10.18014546,2.4516625,23.83715013,-22.93384224,38.39949109,22.93666667
52:29.8,-0.507570752,13.65892047,2.476402584,-6.34351145,-20.3307888,-9.882951654,22.92333333
52:29.9,-0.1923342,15.19360374,1.028708647,-52.87022901,-29.49872774,-89.15776081,22.91666667
52:30.1,0.418985291,13.52484518,0.597752348,-77.28498728,-30.45801527,-138.1704835,22.91
52:30.2,0.546676046,9.53690328,0.181161259,-65.42748092,-18.31806616,-124.5165394,22.90333333
52:30.2,-0.739808313,8.698134631,1.598528642,-11.77608142,-27.49109415,-38.37150127,22.89
52:30.4,-3.092510478,9.674968909,3.343901652,46.42493639,-25.41475827,60.78117048,22.89
52:30.5,-4.209006519,10.49218974,4.703808195,62.92620865,-64.72773537,78.2264631,22.89
52:30.6,-3.723781649,9.607133195,4.293601644,54.09669211,-95.73282443,50.80407125,22.89
52:30.8,-1.790064775,8.505800431,2.883416866,31.07633588,-114.3486005,-0.564885496,22.88333333
52:30.8,-1.122082511,8.682971354,1.601720911,13.91603053,-92.03562341,-28.22391858,22.88333333
52:30.9,-0.679953271,8.457118331,0.755769657,0.842239186,-85.06361323,-52.98473282,22.88333333
52:31.0,-0.49081134,8.532934717,0.345563106,-2.458015267,-80.22391858,-55.70737913,22.89
52:31.1,-0.012769076,8.863334546,0.190738066,5.62086514,-67.32569975,-43.02290076,22.89
52:31.3,-0.03431689,9.379684037,0.695914616,21.30025445,-53.54961832,-21.12468193,22.89666667
52:31.4,-0.467667391,9.872091512,1.187524023,34.21882952,-49.86259542,4.152671756,22.89666667
52:31.5,-0.828393774,9.785102185,1.304839905,34.67938931,-57.69211196,13.3562341,22.89
52:31.6,-0.748587052,10.05883924,0.953690328,19.97964377,-67.35114504,10.83715013,22.87
52:31.6,-0.71187596,10.08677159,0.682347473,5.473282443,-70.73791349,2.893129771,22.85666667
52:31.6,-0.606531087,10.36449899,0.628876969,-6.590330789,-82.7480916,-2.737913486,22.85
52:31.7,-0.715068229,10.4810168,0.667184196,-10.4173028,-84.80661578,-1.279898219,22.85
52:31.8,-0.686337809,10.41078689,0.686337809,-14.29007634,-88.30279898,-0.776081425,22.85
52:31.8,-0.681549406,10.23441403,0.658405457,-17.44020356,-90.40203562,-3.890585242,22.86333333
52:32.0,-0.865104867,9.631873279,0.861912598,-20.043257,-89.98727735,-13.78880407,22.87666667
52:32.1,-2.433306954,9.91279294,1.652797213,-39.2697201,-89.12977099,-59.32315522,22.88333333
52:32.1,-5.252878442,11.09872083,3.126029301,-66.6870229,-83.75063613,-139.1323155,22.88333333
52:32.3,-7.485870524,12.5408283,4.505887524,-96.67175573,-85.30534351,-212.4020356,22.88333333
52:32.4,-6.692591707,10.92394411,5.00388147,-111.1628499,-79.39949109,-250.1374046,22.87666667
52:32.4,-3.45084266,5.880957345,5.212177014,-96.63358779,-58.75318066,-219.3358779,22.86333333
52:32.5,-0.439735038,0.415793022,5.123591553,-73.47582697,-30.02290076,-170.5928753,22.85
52:32.5,0.328803695,-2.873041992,5.888938017,-43.01272265,0.195928753,-115.1043257,22.84333333
52:32.6,-0.017557479,-3.780444421,6.179434485,-31.40712468,12.09414758,-81.91857506,22.83666667
52:32.6,-0.624088566,-4.177881897,6.49945944,-23.02544529,19.16030534,-62.25954198,22.83
52:32.6,-0.552262516,-4.689442985,6.265625745,-16.14503817,19.56743003,-43.73791349,22.83
52:32.7,-0.524330164,-5.017448612,5.899312891,-5.394402036,18.59287532,-27.78625954,22.83
52:32.7,-0.509166886,-5.236917098,5.749276253,8.781170483,23.56997455,-12.55470738,22.83
52:32.7,-0.750183187,-5.11002441,5.742891715,24.01526718,28.03562341,2.821882952,22.83
52:32.8,-1.233013855,-4.908113403,5.757256925,38.34860051,29.28498728,15.19847328,22.83
52:32.8,-1.465251416,-4.543396684,5.319916089,53.58778626,20.71246819,27.34096692,22.83666667
52:32.9,-1.298455367,-3.880202824,4.483541642,75.35877863,12.5826972,40.07124682,22.84333333
52:33.1,-1.114101839,-1.385444694,4.454013155,138.1501272,15.14249364,88.82188295,22.85666667
52:33.2,-2.118868469,3.817953581,5.709372892,178.2951654,20.69974555,135.7124682,22.86333333
52:33.2,-3.176307536,8.479464213,6.110002637,181.1984733,38.13994911,152.8066158,22.85666667
52:33.3,-3.643974927,11.36048688,5.542576843,133.7760814,53.89058524,127.5979644,22.84333333
52:33.3,-3.02307863,11.13942226,3.679887952,100.3180662,70.68447837,99.9821883,22.83
52:33.3,-2.774879724,11.09712469,3.168326864,90.03307888,59.05343511,92.60559796,22.83
52:33.5,-2.636016028,10.7731094,2.991954008,79.61323155,28.03307888,84.17048346,22.83666667
52:33.6,-2.078965108,10.58556361,3.085327873,51.68956743,-5.603053435,52.40712468,22.84333333
52:33.7,-1.525904525,10.23840437,2.521094348,14.63104326,-26.87022901,11.20356234,22.84333333
52:33.7,-1.067015873,10.07480059,1.859496623,-17.99491094,-32.63867684,-27.79643766,22.84333333
52:33.7,-1.112505705,10.14104017,1.304041838,-31.41221374,-33.32569975,-43.51908397,22.84333333
52:33.9,-1.055842932,10.28229806,1.118092175,-32.83715013,-35.66666667,-47.36386768,22.85
52:33.9,-0.920171505,10.25835605,0.858720329,-30.82188295,-44.66666667,-47.03816794,22.84333333
52:33.9,-0.782903943,10.1426363,0.65441512,-26.65394402,-51.96183206,-44.9821883,22.83666667
52:34.0,-0.49959008,9.905610335,0.59136781,-21.21628499,-52.53180662,-41.44529262,22.83
52:34.0,-0.322419157,9.809044202,0.746990918,-16.86768448,-46.20356234,-38.89312977,22.83
52:34.0,-0.20669941,9.600748657,1.038285453,-12.66157761,-42.11195929,-37.16284987,22.83
52:34.1,-0.118912016,9.500990255,1.411780912,-9.65394402,-44.7913486,-35.78371501,22.83
52:34.1,-0.017557479,9.564037565,1.81161259,-8.72519084,-55.31806616,-31.80916031,22.83
52:34.1,0.220266553,9.682949581,1.997562252,-8.127226463,-66.02798982,-22.26463104,22.83
52:34.2,0.446917643,9.6629979,2.046244352,-4.753180662,-70.08905852,-6.809160305,22.83
52:34.2,0.568223861,9.402827987,2.153983427,1.610687023,-65.043257,10.01017812,22.83
52:34.3,0.711077893,8.955112276,2.314394938,9.061068702,-52.51908397,26.04834606,22.83
52:34.3,0.804451758,8.6526448,2.541844096,15.40712468,-38.01526718,39.21628499,22.83
52:34.3,0.845153186,8.610347237,2.712630481,20.65394402,-23.32569975,49.90839695,22.83
52:34.4,0.738212179,8.86493068,2.870647791,24.39440204,-12.39440204,57.44783715,22.81666667
52:34.4,0.610521423,9.066841687,3.133211906,24.57506361,-5.06870229,60.1221374,22.80333333
52:34.4,0.397437476,9.188945972,3.268883333,22.95928753,-3.506361323,56.72264631,22.79
52:34.5,0.388658736,9.680555379,3.398170223,20.2519084,-7.320610687,48.17811705,22.80333333
52:34.5,0.51395529,10.10193487,3.50511123,17.40458015,-9.501272265,37.47582697,22.81666667
52:34.5,0.737414111,10.0891658,3.631205851,13.36132316,-7.661577608,26.22137405,22.83666667
52:34.7,0.773327136,9.347761348,3.737348792,7.053435115,-5.666666667,15.15521628,22.84333333
52:34.7,0.671174532,8.699730766,3.651955599,5.748091603,-18.53689567,5.297709924,22.84333333
52:34.8,0.606531087,8.312668164,3.670311145,5.684478372,-33.54961832,-2.175572519,22.83666667
52:34.8,0.610521423,8.099584216,3.550601062,6.979643766,-47.49872774,-9.050890585,22.83
52:34.8,0.701501086,8.112353292,3.323151904,3.969465649,-49.94656489,-15.24173028,22.81666667
52:34.9,0.835576379,8.597578162,2.877032328,1.223918575,-49.04580153,-20.31552163,22.80333333
52:34.9,0.945709656,9.587181514,2.6439967,-0.498727735,-42.7302799,-22.88295165,22.79
52:35.0,0.933738647,10.77550361,2.601699137,-1.521628499,-31.43002545,-24.49872774,22.79
52:35.0,0.879470076,11.24396906,2.75891838,-5.702290076,-17.78371501,-29.20101781,22.79
52:35.0,0.692722347,10.80662823,2.676717456,-13.32061069,-8.732824427,-38.48091603,22.79
52:35.1,0.515551424,9.769938908,2.305616199,-21.69974555,-9.58778626,-49.78117048,22.80333333
52:35.1,0.308852014,9.295088912,1.802035783,-27.01526718,-20.81679389,-57.78625954,22.81666667
52:35.1,0.225853023,9.572816305,1.502760575,-28.51653944,-33.22900763,-59.2086514,22.83
52:35.2,0.227449158,10.12747302,1.422953853,-27.9821883,-38.91857506,-55.11704835,22.83
52:35.2,0.257775712,10.29187487,1.415771248,-25.93129771,-36.72010178,-48.50636132,22.83
52:35.2,0.308053947,10.04367596,1.410184778,-22.46819338,-29.38676845,-42.02035623,22.83
52:35.3,0.288102266,9.575210506,1.308032174,-17.63613232,-21.38676845,-35.51908397,22.83
52:35.3,0.164401847,9.250397148,1.190716292,-11.78880407,-17.8956743,-27.78880407,22.83
52:35.3,-0.063845378,9.121908325,1.046266125,-6.03562341,-20.49872774,-17.956743,22.81666667
52:35.4,-0.266554451,9.234435803,0.976834277,-1.043256997,-28.52417303,-7.180661578,22.80333333
52:35.4,-0.436542769,9.577604708,0.951296126,2.554707379,-37.23409669,3.41475827,22.79
52:35.4,-0.398235543,9.911994873,0.841960917,5.038167939,-42.7302799,11.9821883,22.78333333
52:35.5,-0.303265544,10.09794454,0.719856632,7.564885496,-41.70229008,17.28753181,22.77666667
52:35.5,-0.138863696,9.97025378,0.559445121,11.31552163,-35.956743,19.1221374,22.77
52:35.5,-0.146046301,9.724449076,0.582589071,16.32569975,-29.96946565,19.09414758,22.79
52:35.6,-0.256179578,9.477048238,0.748587052,20.79898219,-28.29262087,18.93638677,22.81
52:35.6,-0.387860669,9.324617399,0.908200496,24.17048346,-32.55216285,19.38422392,22.83
52:35.6,-0.479638399,9.339780676,1.173956881,26.10178117,-40.00254453,19.55979644,22.81666667
52:35.7,-0.396639408,9.533711011,1.508347046,26.1475827,-45.91857506,20.57251908,22.80333333
52:35.7,-0.356736047,9.979830587,1.990379647,22.04071247,-45.9821883,21.80407125,22.79
52:35.7,-0.361524451,10.84174318,2.036667546,17.01272265,-40.82442748,23.78371501,22.79
52:35.8,-0.496397811,11.1019131,2.15877183,13.49618321,-35.68193384,20.91603053,22.79
52:35.8,-0.362322518,10.49218974,2.559401575,13.30279898,-29.46564885,12.7480916,22.79
52:35.8,-0.291294535,9.453106222,3.57135081,8.740458015,-29.63358779,3.134860051,22.80333333
52:35.9,-0.532310836,9.05726488,4.097277108,-2.608142494,-42.4351145,-3.905852417,22.81666667
52:35.9,-1.137245789,9.096370174,4.060566016,-17.74045802,-71.23918575,-9.452926209,22.81
52:35.9,-1.39821377,9.237628072,3.64317686,-30.76590331,-102.7557252,-17.45038168,22.79
52:36.0,-1.094150159,9.601546724,3.42769871,-38.70483461,-118.7735369,-25.44274809,22.77
52:36.0,-0.64004991,10.40759462,3.445256189,-43.60814249,-123.0101781,-29.33842239,22.79
52:36.0,-0.260169914,10.99417402,3.529851314,-47.8524173,-120.2926209,-30.54961832,22.81
52:36.1,0.066239579,11.06121167,3.653551733,-53.0178117,-113.2620865,-31.00763359,22.83
52:36.1,0.265756384,10.84653159,3.664724674,-60.98473282,-97.76335878,-35.31552163,22.81666667
52:36.1,0.400629744,10.31821109,3.454832996,-70.11195929,-78.95928753,-42.94910941,22.80333333
52:36.2,0.435744702,9.735622017,3.031059302,-77.95165394,-61.66157761,-53.80152672,22.79
52:36.2,0.510763021,9.24959908,2.691082666,-81.32824427,-51.70737913,-65,22.78333333
52:36.3,0.736616044,9.024544124,2.346317627,-78.70992366,-40.59033079,-72.17557252,22.77666667
52:36.3,0.802057556,8.636683455,2.378240316,-68.29007634,-31.89058524,-71.48346056,22.77
52:36.3,0.746192851,8.042921444,2.613670146,-55.83969466,-24.18829517,-66.07379135,22.79
52:36.4,0.3359863,7.623138086,2.983175269,-42.21628499,-24.54707379,-59.57760814,22.81
52:36.4,0.084595125,7.658253044,3.111664091,-31.08905852,-31.90585242,-55.84987277,22.83
52:36.4,0.031922689,8.310273962,3.031857369,-19.13231552,-41.72519084,-48.88295165,22.81666667
52:36.5,-0.137267562,8.96548715,3.151567452,-8.384223919,-52.40966921,-41.02798982,22.80333333
52:36.5,-0.381476131,9.160215552,3.52825518,-0.717557252,-64.90585242,-35.21374046,22.79
52:36.5,-0.281717729,8.487444885,3.921702319,3.335877863,-75.16284987,-33.96946565,22.78333333
52:36.6,0.092575798,7.749232707,4.201025846,4.956743003,-77.67938931,-32.49109415,22.77666667
52:36.6,0.291294535,7.623936153,4.246515678,5.389312977,-72.20610687,-28.64631043,22.77666667
52:36.6,0.179565125,8.013392957,4.377398702,5.188295165,-64.23409669,-24.62340967,22.78333333
52:36.7,0.369505123,8.351773458,4.421292399,5.295165394,-51.14249364,-21.87277354,22.79
52:36.7,0.628078902,8.342994718,4.57611744,6.010178117,-31.29007634,-20.17302799,22.79
52:36.7,0.671174532,8.304687492,4.608040129,8.521628499,-12.05852417,-18.22900763,22.79
52:36.8,0.324015291,8.361350264,4.677471977,10.83969466,-4.010178117,-16.83715013,22.79
52:36.8,0.25538151,8.306283626,4.747701892,11.99745547,-3.79389313,-16.47073791,22.78333333
52:36.8,0.487619071,7.981470268,4.695827523,11,0.715012723,-17.72773537,22.77666667
52:36.9,0.59136781,7.785943799,4.521050802,11.27480916,8.625954198,-18.9389313,22.77
52:36.9,0.281717729,7.646282035,4.465984163,13.42493639,9.753180662,-17.7480916,22.77666667
52:36.9,-0.221862687,7.787539933,4.451618953,18.00254453,1.292620865,-14.92111959,22.78333333
52:37.0,-0.687135876,7.988652873,4.704606262,22.80661578,-15.48600509,-9.381679389,22.79
52:37.0,-0.815624699,8.070055729,4.992708529,25.73791349,-30.82188295,-4.302798982,22.78333333
52:37.0,-0.747788985,8.152256653,5.00946794,25.62340967,-38.35114504,1.17302799,22.77666667
52:37.1,-0.885056547,8.563261271,4.714183069,24.19083969,-43.18066158,3.409669211,22.77
52:37.1,-0.847547388,9.410010592,4.473166768,22.08142494,-46.7735369,2.684478372,22.76333333
52:37.1,-0.561041256,9.46507723,4.543396684,19.71755725,-43.8346056,-1.842239186,22.75666667
52:37.2,-0.021547815,8.822633118,5.216965417,16.35114504,-33.33587786,-6.951653944,22.75
52:37.2,0.280121594,7.303911198,5.754862724,5.264631043,-22.07379135,-12.74045802,22.75666667
52:37.2,0.061451176,8.392474886,5.070121049,-7.071246819,-19.93384224,-14.66157761,22.76333333
52:37.3,-0.315236552,8.577626481,3.604869633,-10.86513995,-29.26717557,-19.30788804,22.77
52:37.3,-0.396639408,9.4219816,3.474784676,5.908396947,-36.69465649,-30.20610687,22.77
52:37.3,0.698308818,8.547299927,4.755682564,21.61832061,-36.97709924,-31.87022901,22.77
52:37.4,0.788490413,8.382898079,5.82190037,31.77862595,-21.34096692,-24.65903308,22.77
52:37.4,0.248996973,7.908048083,5.400520878,33.00254453,-13.88549618,-15.21374046,22.77666667
52:37.4,-0.863508732,7.101202124,4.721365674,37.09160305,-26.72264631,-15.92366412,22.78333333
52:37.5,-0.67755907,6.551333809,4.384581307,39.87277354,-52.51145038,-21.18829517,22.79
52:37.5,-0.391052938,6.828263135,4.152343746,41.23409669,-70.956743,-22.32061069,22.77666667
52:37.5,-0.314438485,7.767588253,4.01348005,40.49618321,-75.88804071,-24.24427481,22.76333333
52:37.6,-0.4333505,8.924785722,3.679887952,37.70229008,-67.56743003,-28.77608142,22.75666667
52:37.6,-0.563435457,9.871293445,3.194663082,36.23664122,-57.49363868,-38.26463104,22.76333333
52:37.6,-0.633665373,11.21124831,2.869051656,36.54198473,-49.59033079,-46.54961832,22.77
52:37.7,-0.592165877,11.63103167,3.213816695,33.01017812,-46.15521628,-46.36895674,22.76333333
52:37.7,-1.007160832,11.93030687,3.026270898,23.66666667,-47.12977099,-34.83206107,22.75666667
52:37.7,-1.872265698,11.03726965,2.466825777,16.48091603,-56.41984733,-22.60559796,22.75
52:37.8,-2.287260653,10.36370092,1.920149731,12.50381679,-68.91094148,-19.8956743,22.75666667
52:37.8,-1.83156427,9.29269471,1.814006791,9.903307888,-74.09160305,-19.07124682,22.76333333
52:37.8,-1.38943503,8.314264299,1.849121749,5.366412214,-67.27735369,-17.81170483,22.77
52:37.9,-1.471635954,7.912836487,1.655191414,1.984732824,-59.7735369,-15.46819338,22.77
52:37.9,-1.805228052,8.248024719,1.444501668,-1.221374046,-63.8956743,-15.34860051,22.77
52:37.9,-2.010331327,9.118716056,1.304041838,-2.198473282,-78.48854962,-16.27480916,22.77
52:38.0,-1.778891833,10.12428075,1.316012846,-1.567430025,-93.90585242,-15.59541985,22.77
52:38.0,-1.2976573,10.45308445,1.631249398,0.356234097,-97.97201018,-13.85496183,22.77
52:38.0,-0.853931925,10.30224974,2.103705192,1.473282443,-94.95165394,-11.42748092,22.77
52:38.1,-0.676761003,10.0963484,2.425326282,1.524173028,-98.77099237,-6.809160305,22.76333333
52:38.1,-0.79806722,10.20887588,2.829148295,-0.643765903,-116.0508906,-1.315521628,22.75666667
52:38.1,-0.743798649,10.41637336,3.015097957,-6.284987277,-141.1882952,0.536895674,22.75
52:38.2,-0.002394202,10.08996386,2.972002327,-13.05089059,-156.2366412,-2.030534351,22.75666667
52:38.2,-0.320024955,9.044495805,2.169146704,-9.788804071,-131.5852417,-19.16030534,22.76333333
52:38.2,1.079784949,8.145872115,2.086147713,-0.155216285,-121.3409669,-30.44783715,22.77
52:38.3,1.420559652,7.536946826,2.414153341,13.15012723,-94.65139949,-23.50127226,22.76333333
52:38.3,2.571372583,7.758011446,3.552197196,16.78625954,-89.75063613,2.297709924,22.75666667
52:38.4,1.489193433,8.109161023,3.641580725,17.02798982,-57.51145038,19.36641221,22.75
52:38.4,0.746192851,8.572040011,3.545812659,13.37913486,-45.93638677,19.68956743,22.75
52:38.4,1.390233097,8.739634127,3.168326864,12.7913486,-13.97709924,19.23409669,22.75
52:38.5,1.296061165,8.675788749,3.001530815,13.12722646,23.50127226,21.09923664,22.75666667
52:38.5,1.909774858,8.678182951,3.195461149,12.95928753,64.40203562,19.67430025,22.76333333
52:38.5,0.733423775,9.171388493,3.291229215,18.33842239,86.5394402,0.709923664,22.77
52:38.6,0.556252852,9.673372774,3.130817704,20.81170483,75.04580153,-4.860050891,22.77
52:38.6,0.252189242,10.25276958,2.929704765,23.24427481,65.42239186,-11.25699746,22.77
52:38.6,0.286506132,10.08278126,2.699861405,17.7735369,36.03816794,-7.058524173,22.77
52:38.7,0.369505123,10.00217647,2.591324264,12.92111959,18.06615776,-15.14503817,22.76333333
52:38.7,-0.078210588,9.737218152,2.039061747,10.26208651,-12.72010178,-22.64122137,22.75666667
52:38.7,0.653617053,9.69172832,1.742978809,11.16030534,-33.01526718,-24.52671756,22.75666667
52:38.8,0.968055538,9.600748657,1.870669564,12.73791349,-43.11195929,-21.6437659,22.76333333
52:38.8,1.064621672,9.6143158,2.121262671,13.38676845,-46.35114504,-13.34351145,22.77
52:38.8,0.397437476,9.765150505,2.078167041,10.59541985,-51.46310433,-9.768447837,22.77
52:38.9,0.229045292,9.798669328,1.804429985,8.977099237,-50.55470738,-10.63358779,22.77
52:38.9,0.578598735,9.664594035,1.464453349,10.08905852,-38.49872774,-9.038167939,22.77
52:39.0,0.839566715,9.267156559,1.103726965,13.48346056,-18.88040712,-5.740458015,22.76333333
52:39.0,0.656011255,9.261570089,1.043871924,19.04834606,-0.272264631,-0.007633588,22.75666667
52:39.0,0.272140922,9.394049247,0.949699992,22.85750636,8.989821883,0.127226463,22.75
52:39.1,0.04309563,9.816226807,1.094948226,24.27989822,10.23664122,-1.272264631,22.75
52:39.1,0.102950671,9.923167814,1.103726965,21.73282443,3.857506361,-5.320610687,22.75
52:39.1,0.025538151,9.902418066,1.09095789,17.1043257,-8.636132316,-10.55216285,22.75666667
52:39.2,0.165199915,9.87847605,1.049458394,12.4783715,-17.65394402,-14.58524173,22.76333333
52:39.2,0.315236552,9.702103194,0.903412093,8.613231552,-21.91348601,-14.04580153,22.77
52:39.3,0.448513778,9.681353446,0.787692346,6.664122137,-17.53435115,-8.651399491,22.77
52:39.3,0.305659745,9.748391093,0.770134867,4.987277354,-12.23155216,-3.748091603,22.77
52:39.3,0.375091593,9.803457731,0.717462431,3.890585242,-7.972010178,-0.849872774,22.76333333
52:39.4,0.510763021,9.856928235,0.845951253,1.72519084,-2.679389313,3.099236641,22.75666667
52:39.4,-0.3359863,9.216878324,0.938527051,-1.659033079,-12.51653944,4.994910941,22.75
52:39.4,-0.018355546,9.371703365,1.131659318,-7.473282443,-16.39949109,6.959287532,22.76333333
52:39.5,-0.197920671,9.410010592,1.054246798,-11.0610687,-22.24427481,7.806615776,22.77666667
52:39.5,0.7206547,9.94152336,0.891441085,-11.7480916,-8.921119593,11.36641221,22.79
52:39.6,0.474849996,9.875283781,0.765346464,-10.65648855,-0.707379135,13.00254453,22.77666667
52:39.6,0.584185205,9.940725293,0.79806722,-9.781170483,7.083969466,10.75826972,22.76333333
52:39.6,0.584983272,9.957484705,0.92735411,-8.918575064,10.6692112,7.302798982,22.75666667
52:39.7,0.54827218,9.844957227,1.016737638,-8.910941476,11.83715013,5.419847328,22.76333333
52:39.7,0.943315454,9.635065548,0.999978227,-11.20101781,13.0610687,8.478371501,22.77
52:39.7,0.748587052,9.539297481,0.835576379,-12.07379135,14.96692112,10.3562341,22.77666667
52:39.8,0.418187223,9.467471431,0.828393774,-12.48854962,15.18575064,6.045801527,22.78333333
52:39.8,-0.111729411,9.568825968,1.072602344,-13.41984733,4.737913486,-1.664122137,22.79
52:39.8,0.22106462,9.574412439,1.213860242,-17.58778626,-16.58524173,-4.155216285,22.78333333
52:39.9,0.660001591,9.647834623,1.113303772,-18.21882952,-31.42493639,2.106870229,22.77666667
52:39.9,0.768538733,9.406818323,0.868297135,-15.30788804,-25.89312977,7.244274809,22.77
52:39.9,0.680751339,9.527326473,1.24019646,-11.02035623,-0.1043257,4.735368957,22.77666667
52:40.0,0.811634363,9.595960254,1.53308713,-8.089058524,24.57251908,0.900763359,22.78333333
52:40.0,0.549070247,9.299877315,1.592144104,-6.674300254,46.19083969,3.048346056,22.79
52:40.0,0.490013273,9.281521769,1.630451331,-4.681933842,44.1221374,3.430025445,22.78333333
52:40.1,-0.053470504,9.345367147,2.018312,-8.010178117,22.39949109,5.770992366,22.77666667
52:40.1,0.337582434,9.751583362,2.154781494,-15.04071247,-6.913486005,1.994910941,22.77
52:40.1,0.716664364,9.429962272,1.789266707,-14.61068702,-10.79643766,5.048346056,22.77
52:40.2,0.903412093,9.255185551,1.266532678,-7.659033079,11.69720102,1.503816794,22.77
52:40.2,0.600146549,9.377289836,1.715046456,0.376590331,28.25445293,-1.34605598,22.77
52:40.2,0.148440503,9.64863269,2.024696537,-1.65648855,17.48346056,-3.992366412,22.77
52:40.3,0.347159241,9.579200842,2.1156762,-5.486005089,-6.259541985,-3.129770992,22.77
52:40.3,0.661597725,9.475452104,1.751757548,-3.648854962,-18.03816794,0.226463104,22.77
52:40.3,1.537077466,9.308656055,2.391009391,-1.659033079,-35.60305344,1.743002545,22.77
52:40.4,1.394223433,9.0859953,2.195482922,0.562340967,-34.76335878,-1.460559796,22.77
52:40.4,1.675941162,8.774749084,2.308808468,0.361323155,-41.52417303,-2.989821883,22.77666667
52:40.5,0.712674028,8.981448494,1.655191414,2.735368957,-32.92111959,-5.094147583,22.78333333
52:40.5,1.103726965,9.203311182,2.007937126,3.977099237,-28.03562341,-1.811704835,22.79
52:40.5,0.59136781,9.581595044,2.004744857,2.684478372,-18.17048346,-1.687022901,22.79
52:40.6,0.842758984,9.40761639,1.986389311,2.328244275,0.358778626,-2.417302799,22.79
52:40.6,0.392649072,9.636661682,2.323173678,3.083969466,23.18066158,-5.315521628,22.78333333
52:40.6,-1.66796049,10.84014705,1.216254443,4.160305344,44.91094148,-21.33333333,22.77666667
52:40.7,-2.075772839,11.03008705,1.024718311,0.119592875,59.64631043,-27.78625954,22.77
52:40.7,-2.341529224,11.03407738,0.924161841,-4.613231552,42.70737913,-31.89821883,22.77
52:40.7,-0.414994954,9.863312773,1.757344019,-10.18829517,15.11959288,-22.2264631,22.77
52:40.8,0.214680082,9.461884961,1.89461158,-8.849872774,-12.4783715,-14.57506361,22.77
52:40.8,0.335188232,9.061255216,1.242590662,0.195928753,-16.40966921,-2.679389313,22.76333333
52:40.8,0.138065629,9.248801013,1.777295699,6.213740458,-18.75063613,8.89821883,22.75666667
52:40.9,0.082200924,9.669382438,1.825179732,5.893129771,-25.8778626,18.7913486,22.75
52:40.9,0.5770026,9.642248153,1.949678219,2.773536896,-24.60050891,21.64122137,22.75666667
52:40.9,1.320801249,9.401231852,1.56181755,6.732824427,-1.511450382,17.54707379,22.76333333
52:41.0,0.907402429,9.309454122,1.441309399,11.00763359,23.76335878,14.30788804,22.77
52:41.0,0.136469495,9.638257817,1.515529651,8.335877863,26.04834606,6.452926209,22.77
52:41.0,-0.312044283,9.92715815,1.302445703,4.422391858,9.287531807,-2.195928753,22.77
52:41.1,0.359130249,9.530518742,1.066217806,1.122137405,16.36895674,-12.34351145,22.76333333
52:41.1,1.017535706,9.795477059,1.364694946,0.564885496,29.20101781,-9.020356234,22.75666667
52:41.2,0.465273189,9.455500423,1.565009819,-1.03562341,34.16030534,1.223918575,22.75
52:41.2,-0.367908988,9.801861597,1.755747884,-1.865139949,13.93638677,4.10178117,22.75
52:41.2,-0.51954176,9.521740002,1.552240743,-2.776081425,-5.089058524,2.127226463,22.75
52:41.3,0.019153613,9.552066557,1.574586625,-3.073791349,-10.97455471,0.557251908,22.75
52:41.3,0.23542983,9.599152523,1.614489986,-1.569974555,-7.272264631,1.834605598,22.76333333
52:41.3,0.079008655,9.599152523,1.628855196,-0.628498728,-3.597964377,0.712468193,22.77666667
52:41.4,0.025538151,9.609527397,1.617682255,-0.368956743,-4.399491094,-0.269720102,22.77666667
52:41.4,0.003192269,9.564835632,1.628855196,-0.885496183,-8.41475827,-0.424936387,22.76333333
52:41.4,0.073422184,9.536105212,1.582567297,-1.384223919,-8.430025445,-1.040712468,22.75
52:41.5,0.154825041,9.547278153,1.580173096,-1.524173028,-4.867684478,-1.569974555,22.75
52:41.5,0.113325545,9.615911934,1.592942171,-1.748091603,-1.72264631,-2.094147583,22.75
52:41.6,0.06304731,9.615911934,1.580971163,-1.702290076,-1.480916031,-2.050890585,22.75
52:41.6,0.040701428,9.57122017,1.58176923,-1.475826972,-2.760814249,-1.816793893,22.75
52:41.6,0.062249243,9.504980591,1.574586625,-1.03307888,-3.829516539,-1.592875318,22.75
52:41.7,0.049480168,9.500990255,1.583365365,-0.628498728,-4.712468193,-1.480916031,22.75
52:41.7,0.066239579,9.541691683,1.59054797,-0.628498728,-5.190839695,-1.272264631,22.75
52:41.7,0.030326554,9.574412439,1.507548979,-0.821882952,-5.13740458,-1.290076336,22.75
52:41.8,0.072624117,9.595162187,1.493183769,-1.117048346,-4.221374046,-1.755725191,22.75
52:41.8,0.051076302,9.599152523,1.442107467,-1.160305344,-3.422391858,-2.486005089,22.75
52:41.9,0.050278235,9.575210506,1.469241752,-1.114503817,-3.493638677,-3.096692112,22.75
52:41.9,0.039105294,9.560845296,1.532289062,-0.829516539,-4.463104326,-3.226463104,22.76333333
52:41.9,-0.002394202,9.537701347,1.545058138,-0.124681934,-8.081424936,-2.524173028,22.77666667
52:42.0,-0.113325545,9.568027901,1.59054797,2.330788804,-18.94147583,-1.534351145,22.77666667
52:42.0,-0.237824032,9.514557397,1.442905534,5.824427481,-36.92111959,-0.730279898,22.76333333
52:42.1,-0.458888652,9.57999891,1.510741248,9.727735369,-63.19083969,-1.050890585,22.76333333
52:42.1,-0.11492168,9.603142859,1.497972172,9.305343511,-80.97964377,-1.867684478,22.77666667
52:42.2,0.122902352,9.69172832,1.597730575,6.470737913,-80.91603053,-2.58778626,22.77666667
52:42.2,0.796471086,9.670978573,1.474828223,2.595419847,-61.74300254,-1.022900763,22.76333333
52:42.2,0.795673018,9.633469413,1.493183769,0.684478372,-35.34605598,1.651399491,22.75
52:42.3,0.754173523,9.595162187,1.364694946,0.31043257,-19.86513995,2.732824427,22.75
52:42.3,-0.214680082,9.706891597,1.300051501,4.615776081,-36.64885496,-3.053435115,22.75
52:42.4,-0.173978654,9.858524369,1.200293099,5.124681934,-69.08396947,-11.92620865,22.75
52:42.4,-0.016759412,9.952696301,1.189918225,4.038167939,-82.41475827,-19.15012723,22.75
52:42.5,0.661597725,9.748391093,1.161985872,-0.081424936,-59.30279898,-19.1475827,22.76333333
52:42.5,0.392649072,9.537701347,1.228225452,-0.488549618,-30.49363868,-14.92366412,22.77666667
52:42.5,0.132479159,9.374097567,1.237802258,-0.178117048,-19.64885496,-8.743002545,22.78333333
52:42.6,-0.082200924,9.447519751,1.318407048,-1.284987277,-25.89312977,-5.580152672,22.77666667
52:42.6,-0.248996973,9.516951599,1.177947217,-2.139949109,-39.86259542,-5.010178117,22.77
52:42.7,-0.067835714,9.578402775,1.271321082,-2.41475827,-57.09669211,-5.893129771,22.77
52:42.7,0.10055647,9.552864624,1.327185787,-2.524173028,-65.52417303,-4.837150127,22.77
52:42.8,0.561839323,9.524932271,1.434924862,-2.234096692,-56.27989822,-2.48346056,22.77666667
52:42.8,0.54268571,9.512961263,1.424549988,-2.190839695,-35.41221374,0.409669211,22.78333333
52:42.9,0.547474113,9.577604708,1.447693937,-1.946564885,-19.46310433,1.712468193,22.77666667
52:42.9,0.437340837,9.693324455,1.491587634,-2.702290076,-9.44783715,2.664122137,22.76333333
52:42.9,0.596954281,9.769938908,1.507548979,-4.078880407,4.55216285,2.933842239,22.75666667
52:43.0,0.885854614,9.74360269,1.489193433,-5.923664122,33.29770992,4.712468193,22.76333333
52:43.0,0.945709656,9.672574707,1.442905534,-7.356234097,70.87022901,6.717557252,22.77
52:43.1,0.612915625,9.65741143,1.443703601,-7.961832061,96.89312977,6.641221374,22.77666667
52:43.1,-0.261766048,9.660603699,1.51872192,-8.41475827,88.38167939,4.13740458,22.78333333
52:43.2,-1.084573352,9.64304622,1.608105448,-8.335877863,36,-0.246819338,22.77
52:43.2,-1.027112512,9.629479077,1.699883179,-6.333333333,-23.85496183,-4.185750636,22.75
52:43.2,-0.183555461,9.603940926,1.598528642,-2.743002545,-47.16793893,-6.717557252,22.73666667
52:43.3,0.712674028,9.583989246,1.588951835,1.41221374,-19.34605598,-6.692111959,22.74333333
52:43.3,0.771731002,9.523336137,1.484405029,3.809160305,27.98727735,-5.229007634,22.75666667
52:43.4,0.383870333,9.615113867,1.53308713,3.20610687,56.64631043,-3.20610687,22.76333333
52:43.4,-0.074220251,9.601546724,1.391031165,0.458015267,58.0610687,-1.030534351,22.76333333
52:43.5,-0.376687728,9.604738993,1.304839905,-2.055979644,38.15267176,0.386768448,22.75666667
52:43.5,-0.608925289,9.512961263,1.244186796,-3.430025445,12.91094148,-0.302798982,22.75
52:43.5,-0.576204533,9.537701347,1.305637972,-3.531806616,-7.979643766,-2.386768448,22.75
52:43.6,-0.383072266,9.595960254,1.246580998,-3.832061069,-20.64885496,-4.37913486,22.75
52:43.6,-0.209891679,9.626286808,1.287282426,-3.455470738,-26.07633588,-4.167938931,22.74333333
52:43.7,-0.08619126,9.592767985,1.255359737,-3.335877863,-26.51653944,-3.203562341,22.73666667
52:43.7,-0.054268571,9.554460758,1.356714274,-3.458015267,-24.15267176,-1.798982188,22.73666667
52:43.8,0.136469495,9.54248975,1.292868896,-3.903307888,-16.12468193,-0.503816794,22.74333333
52:43.8,0.210689746,9.606335128,1.309628308,-3.27735369,-3.659033079,1.407124682,22.75
52:43.9,0.050278235,9.619902271,1.363098812,-2.111959288,1.905852417,3.267175573,22.74333333
52:43.9,-0.178767057,9.631075212,1.362300745,-0.788804071,-2.692111959,5.239185751,22.73666667
52:43.9,-0.351149577,9.556056893,1.434126794,0.564885496,-15.50381679,5.788804071,22.73666667
52:44.0,-0.224256889,9.548874288,1.521116121,2.361323155,-24.49618321,6.832061069,22.74333333
52:44.0,-0.045489832,9.508970927,1.746171077,3.531806616,-25.31043257,7.050890585,22.75666667
52:44.1,0.000798067,9.552066557,1.778093766,3.905852417,-20.03816794,6.93129771,22.76333333
52:44.1,0.056662773,9.611921598,1.837948808,2.582697201,-13.92875318,5.776081425,22.76333333
52:44.2,0.015961344,9.636661682,1.783680237,0.488549618,-8.195928753,4.096692112,22.75666667
52:44.2,0.131681091,9.636661682,1.799641581,-1.811704835,-1.055979644,2.737913486,22.75
52:44.2,0.127690755,9.601546724,1.69669091,-3.595419847,9.409669211,0.893129771,22.75
52:44.3,0.174776721,9.572018237,1.592942171,-4.417302799,17.64631043,0.417302799,22.75
52:44.3,-0.027932353,9.579200842,1.550644609,-4.684478372,19.04071247,-0.521628499,22.75
52:44.4,-0.096566134,9.561643363,1.502760575,-4.511450382,11.82951654,0.223918575,22.75
52:44.4,-0.142055965,9.573614372,1.491587634,-3.732824427,4.27735369,0.613231552,22.75
52:44.5,0.027134285,9.541691683,1.489193433,-2.399491094,1.435114504,1.928753181,22.75
52:44.5,0.007980672,9.553662691,1.514731584,-1.218829517,2.511450382,2.814249364,22.75
52:44.5,-0.031922689,9.568027901,1.553836877,-0.910941476,2.229007634,3.305343511,22.75
52:44.6,-0.029528487,9.583989246,1.512337382,-1.338422392,0.849872774,3.422391858,22.75
52:44.6,0.040701428,9.570422103,1.540269735,-2.44783715,2.188295165,3.150127226,22.75
52:44.7,0.152430839,9.540893616,1.486799231,-3.65394402,6.773536896,3.231552163,22.75
52:44.7,0.107739075,9.569624036,1.47562629,-4.31043257,11.88804071,3.132315522,22.75
52:44.8,0.118113949,9.58558538,1.460463013,-3.564885496,17.82188295,3.24173028,22.75
52:44.8,0.069431848,9.641450085,1.472434021,-1.732824427,24.21882952,3.498727735,22.74333333
52:44.9,0.010374874,9.631075212,1.526702592,0.435114504,29.07379135,3.8956743,22.73666667
52:44.9,-0.126892688,9.607931262,1.592144104,1.03562341,27.1653944,3.389312977,22.73
52:44.9,-0.161209578,9.590373783,1.683123767,-0.017811705,17.77608142,2.905852417,22.73
52:45.0,-0.087787394,9.570422103,1.717440658,-2.582697201,7.786259542,2.063613232,22.73
52:45.0,0.107739075,9.574412439,1.715046456,-4.577608142,4.122137405,1.737913486,22.73666667
52:45.1,0.189141931,9.545682019,1.700681246,-5.575063613,8.730279898,1.297709924,22.74333333
52:45.1,0.177170923,9.545682019,1.775699565,-5.48346056,14.32824427,1.857506361,22.74333333
52:45.1,0.095768066,9.558451095,1.799641581,-5.020356234,15.84478372,2.8956743,22.73666667
52:45.2,-0.01436521,9.58558538,1.855506287,-4.58524173,13.88804071,3.921119593,22.73
52:45.2,-0.031124622,9.560845296,1.79724738,-4.580152672,10.96183206,4.41475827,22.72333333
52:45.2,-0.088585461,9.555258826,1.806026119,-4.290076336,10.83206107,3.580152672,22.71666667
52:45.3,0.065441512,9.583191178,1.918553597,-4.442748092,11.53435115,4.083969466,22.71
52:45.3,0.179565125,9.640652018,2.061407629,-5.213740458,13.1221374,5.017811705,22.71
52:45.4,0.368707056,9.552066557,2.176329309,-7.407124682,19.90585242,5.595419847,22.73
52:45.5,0.377485795,9.347761348,2.232194014,-7.486005089,26.61323155,2.745547074,22.75
52:45.5,0.320823022,9.127494796,2.335144686,-5.882951654,27.72519084,0.949109415,22.76333333
52:45.6,0.302467476,9.213686056,2.57217065,-1.814249364,19.18066158,2.903307888,22.75
52:45.6,0.264958317,9.267954626,2.556209306,-0.442748092,11.49109415,7.236641221,22.73666667
52:45.7,0.276929325,9.251195215,2.493960063,-0.880407125,12.22391858,8.913486005,22.73666667
52:45.8,0.133277226,9.210493787,2.185906116,-3.745547074,17.4605598,7.783715013,22.74333333
52:45.8,-0.024740084,9.280723702,2.076570907,-4.872773537,21.90076336,4.877862595,22.75
52:45.9,-0.173978654,9.410010592,1.901794185,-4.839694656,19.32315522,3.613231552,22.75
52:46.0,-0.162007646,9.461086894,1.814006791,-3.715012723,13.18575064,1.72264631,22.74333333
52:46.0,-0.161209578,9.514557397,1.677537297,-2.908396947,7.816793893,0.348600509,22.73666667
52:46.1,-0.10055647,9.608729329,1.65359528,-2.287531807,6.315521628,-1.636132316,22.73666667
52:46.1,-0.052672437,9.517749666,1.75415175,-0.75826972,5.292620865,-2.541984733,22.74333333
52:46.2,0.036711092,9.415597062,1.921745866,0.323155216,4.562340967,-2.03307888,22.75
52:46.2,0.099758403,9.334194206,2.019110067,1.254452926,4.117048346,-0.987277354,22.75
52:46.3,0.083797058,9.430760339,2.145204688,0.692111959,5.880407125,0.536895674,22.75
52:46.4,0.079806722,9.520941935,2.153983427,0.040712468,7.335877863,1.302798982,22.75
52:46.4,0.015163277,9.588777649,2.189896452,-0.804071247,7.79389313,2.328244275,22.75
52:46.5,-0.142854032,9.500192188,1.944091748,-0.440203562,9.865139949,3.03307888,22.75
52:46.6,-0.274535124,9.494605717,1.746969145,0.707379135,10.95165394,3.463104326,22.75
52:46.6,-0.421379492,9.437942944,1.525904525,3.012722646,9.801526718,3.071246819,22.75
52:46.7,-0.380678064,9.510567061,1.636835868,5.882951654,5.038167939,0.821882952,22.75666667
52:46.7,-0.380678064,9.496201851,1.84592948,6.366412214,-2.885496183,-0.819338422,22.76333333
52:46.8,-0.017557479,9.557653027,2.10131099,5.65394402,-9.417302799,-1.03307888,22.76333333
52:46.9,0.023942017,9.655017228,2.116474268,1.256997455,-9.048346056,1.770992366,22.75666667
52:46.9,0.075816386,9.667786304,2.075772839,-2.264631043,-7.422391858,3.480916031,22.75
52:47.0,-0.193132267,9.675766976,1.938505278,-5.659033079,-6.1043257,4.572519084,22.75
52:47.1,-0.12928689,9.52253807,1.775699565,-6.188295165,-16.89058524,5.183206107,22.75
52:47.1,-0.104546806,9.446721684,1.53308713,-4.697201018,-23.32061069,6.628498728,22.75
52:47.2,-0.006384538,9.495403784,1.90339032,-4.394402036,-18.95928753,5.295165394,22.74333333
52:47.2,0.068633781,9.534509078,2.001552588,-6.768447837,-7.659033079,3.302798982,22.73666667
52:47.3,-0.035114958,9.520941935,2.24496309,-9.735368957,-4.676844784,0.944020356,22.73666667
52:47.3,0.046287899,9.412404793,2.025494604,-10.01017812,-15.40458015,1.160305344,22.74333333
52:47.4,0.244208569,9.395645382,2.300029728,-5.503816794,-9.765903308,4.455470738,22.74333333
52:47.5,0.669578398,9.422779667,2.502738802,-1.745547074,5.849872774,8.480916031,22.73666667
52:47.5,0.870691337,9.488221179,2.502738802,-0.778625954,30.03562341,12.35368957,22.73
52:47.6,0.537099239,9.434750675,2.4029804,-2.468193384,16.42493639,11.09160305,22.73
52:47.7,0.906604362,9.401231852,2.41734561,-5.913486005,13.27989822,10.4173028,22.73
52:47.7,0.775721338,9.327809668,2.49475813,-6.539440204,13.44529262,7.440203562,22.73
52:47.8,0.954488395,9.45071202,2.987165605,-2.480916031,37.23155216,3.554707379,22.73
52:47.8,-0.168392183,9.670978573,2.779668127,1.745547074,38.69974555,-6.781170483,22.73
52:47.9,-0.287304199,9.718862606,2.686294263,-0.297709924,21.47582697,-13.02290076,22.73
52:48.0,-0.514753357,9.552066557,2.122060738,-4.954198473,3.437659033,-10.58524173,22.72333333
52:48.0,0.009576807,9.35015555,2.263318636,-5.674300254,-11.80661578,-1.702290076,22.72333333
52:48.1,0.003990336,9.345367147,2.430912752,-1.524173028,-16.07124682,5.521628499,22.72333333
52:48.2,0.2410163,9.503384456,2.705447876,-0.129770992,-16.75318066,4.422391858,22.73
52:48.2,0.268948653,9.524932271,2.758120313,-1.361323155,-10.54707379,2.900763359,22.73
52:48.2,0.071027983,9.349357483,2.48039292,-1.745547074,-8.452926209,0.076335878,22.73
52:48.3,0.040701428,9.267954626,2.457248971,-0.847328244,-4.279898219,-0.089058524,22.72333333
52:48.4,0.0486821,9.275935299,2.453258634,-0.017811705,-0.905852417,-1.335877863,22.71666667
52:48.4,0.367908988,9.359732357,2.611275944,0.030534351,5.190839695,-1.496183206,22.71666667
52:48.5,0.277727393,9.37888597,2.410163005,-1.119592875,6.208651399,-2.239185751,22.72333333
52:48.6,0.237824032,9.329405802,2.269703174,-1.816793893,5.114503817,-2.58778626,22.73
52:48.6,0.090181596,9.363722693,2.229001746,-2.325699746,5.318066158,-3.127226463,22.73
52:48.6,0.233833695,9.270348828,2.175531242,-2.012722646,2.022900763,-1.631043257,22.73
52:48.7,0.300871342,9.323021265,2.193886788,-1.549618321,0.170483461,-0.610687023,22.73
52:48.7,0.375091593,9.343771012,2.265712838,-1.178117048,-1.389312977,0.404580153,22.72333333
52:48.8,0.240218233,9.434750675,2.363077039,-1.333333333,-0.867684478,-0.287531807,22.72333333
52:48.9,0.173180587,9.416395129,2.413355273,-1.511450382,-1.590330789,-0.109414758,22.72333333
52:48.9,0.073422184,9.388462777,2.429316618,-1.58778626,-1.928753181,0.264631043,22.72333333
52:49.0,0.075816386,9.367713029,2.479594853,-1.264631043,-3.628498728,0.569974555,22.73
52:49.0,0.09177773,9.374895634,2.5003446,-1.295165394,-2.717557252,0.356234097,22.73666667
52:49.1,0.109335209,9.376491768,2.455652836,-1.422391858,-1.608142494,-0.221374046,22.75
52:49.2,0.123700419,9.389260844,2.441287626,-1.488549618,-0.531806616,-0.402035623,22.73666667
52:49.2,0.080604789,9.386866642,2.457248971,-1.190839695,-1.139949109,-0.325699746,22.72333333
52:49.3,0.089383529,9.386068575,2.478796785,-0.989821883,-1.875318066,-0.201017812,22.71
52:49.4,-0.000798067,9.386068575,2.508325273,-0.949109415,-2.193384224,-0.012722646,22.71666667
52:49.4,0.037509159,9.389260844,2.442085693,-1.193384224,-1.954198473,-0.147582697,22.72333333
52:49.5,0.114123612,9.410010592,2.497950399,-1.55216285,-0.590330789,-0.122137405,22.72333333
52:49.6,0.24979504,9.34456908,2.446076029,-1.786259542,1.251908397,-0.58778626,22.71666667
52:49.6,0.216276217,9.32142513,2.296837459,-1.44783715,0.145038168,1.783715013,22.71666667
52:49.7,0.080604789,9.461884961,2.537055693,-1.167938931,0.142493639,1.549618321,22.72333333
52:49.8,-0.054268571,9.477846305,2.318385274,0.305343511,3.778625954,1.279898219,22.73666667
52:49.9,-0.26974672,9.474654036,2.557007373,0.613231552,0.867684478,-0.201017812,22.74333333
52:49.9,-0.471657727,9.632671346,2.378240316,1.17302799,0.37913486,-0.735368957,22.74333333
52:50.0,-0.459686719,9.627882943,2.616064347,0.814249364,-4.536895674,1.055979644,22.73666667
52:50.0,-0.330399829,9.577604708,2.537055693,1.480916031,1.921119593,1.208651399,22.73
52:50.1,-0.110133276,9.212887988,2.328760148,1.027989822,2.442748092,2.778625954,22.72333333
52:50.2,-0.185949662,9.260772021,2.392605526,0.094147583,-4.185750636,3.440203562,22.71666667
52:50.2,0.122902352,9.322223197,2.355096366,-1.027989822,-0.577608142,1.455470738,22.71
52:50.3,0.223458822,9.374097567,2.38861519,-0.641221374,2.231552163,0.651399491,22.71666667
52:50.3,0.261766048,9.461884961,2.272895443,0.096692112,9.094147583,-0.297709924,22.72333333
52:50.4,-0.007980672,9.462683028,2.227405611,-0.351145038,0.839694656,2.419847328,22.73
52:50.4,-0.153228906,9.446721684,2.185108049,0.111959288,-10.01017812,3.557251908,22.73
52:50.5,-0.049480168,9.369309163,2.244165023,-0.910941476,-13.17048346,3.213740458,22.72333333
52:50.5,-0.105344873,9.379684037,2.268905107,-0.384223919,-14.86768448,2.549618321,22.71666667
52:50.6,0.070229915,9.270348828,2.291250989,-0.82697201,-12.34860051,2.450381679,22.71666667
52:50.6,0.134075293,9.368511096,2.178723511,0.325699746,-8.076335878,1.513994911,22.72333333
52:50.7,0.389456803,9.380482104,2.240972754,0.961832061,-1.58778626,0.829516539,22.73
52:50.7,0.392649072,9.526528406,2.222617208,0.374045802,4.315521628,0.162849873,22.73
52:50.8,0.331995964,9.337386475,2.181117712,0.185750636,3.852417303,0.910941476,22.71666667
52:50.9,0.058258907,9.411606726,2.153983427,-0.297709924,1.946564885,1.445292621,22.71666667
52:50.9,-0.11492168,9.516153532,2.226607544,-1.633587786,-2.608142494,1.72264631,22.71666667
52:51.0,-0.219468486,9.098764376,2.004744857,-1.312977099,-3.631043257,-0.96437659,22.72333333
52:51.1,0.01436521,9.154629081,2.154781494,-1.824427481,-2.641221374,1.025445293,22.72333333
52:51.1,0.016759412,9.35015555,1.912967126,-0.628498728,-6.183206107,3.501272265,22.72333333
52:51.2,0.199516805,9.797871261,2.108493595,-1.040712468,-12.07379135,6.867684478,22.73
52:51.3,0.011172941,9.918379411,1.501164441,1.005089059,-21.35368957,6.119592875,22.73
52:51.3,0.039903361,9.515355465,1.734998136,2.679389313,-17.52671756,-0.905852417,22.73
52:51.3,0.222660754,9.615113867,1.95207242,4.381679389,-10.51653944,-0.55216285,22.72333333
52:51.4,0.347159241,9.403626054,2.366269307,1.867684478,-6.31043257,-1.727735369,22.72333333
52:51.5,0.387062602,9.561643363,2.387019055,-0.368956743,-3.712468193,2.366412214,22.72333333
52:51.5,0.213882015,9.568825968,2.295241325,-4.124681934,-2.409669211,-0.13740458,22.73
52:51.6,0.009576807,9.453904289,2.193886788,-6.913486005,-0.643765903,0.185750636,22.72333333
52:51.7,0.160411511,9.350953617,1.964043429,-6.987277354,2.096692112,-1.417302799,22.71666667
52:51.7,0.096566134,9.253589417,1.93212074,-6.27480916,5.452926209,-1.417302799,22.71666667
52:51.8,0.366312854,9.312646391,2.071782503,-3.017811705,5.185750636,-2.249363868,22.72333333
52:51.9,0.299275208,9.326213534,2.243366956,-1.68956743,2.328244275,-0.427480916,22.72333333
52:52.0,0.30725588,9.367713029,2.263318636,-0.824427481,-3.384223919,0.865139949,22.72333333
52:52.1,0.252987309,9.390058911,2.304818132,-0.684478372,-1.442748092,0.590330789,22.73
52:52.1,0.219468486,9.410808659,2.347115694,-1.229007634,-0.974554707,0.111959288,22.74333333
52:52.2,0.299275208,9.40761639,2.323971745,-1.468193384,-0.717557252,-0.157760814,22.74333333
52:52.3,0.286506132,9.408414457,2.341529224,-1.417302799,-1.402035623,0.012722646,22.73666667
52:52.3,0.299275208,9.429164205,2.335144686,-1.251908397,-2.371501272,0.279898219,22.73
52:52.4,0.154825041,9.385270508,2.366269307,-1.226463104,-3.34351145,0.608142494,22.73
52:52.5,0.162805713,9.366116895,2.348711829,-1.223918575,-3.351145038,0.597964377,22.73
52:52.5,0.165997982,9.365318827,2.397393929,-1.323155216,-2.702290076,0.669211196,22.73
52:52.9,0.242612435,9.400433785,2.399788131,-1.099236641,-1.435114504,0.358778626,22.73
52:52.9,0.260967981,9.368511096,2.340731156,-0.933842239,-0.358778626,0.078880407,22.73
52:53.0,0.267352519,9.341376811,2.256934098,-0.694656489,-0.005089059,-0.117048346,22.73
52:53.1,0.259371847,9.363722693,2.193088721,-0.631043257,-0.473282443,-0.012722646,22.73
52:53.2,0.248198905,9.425173869,2.176329309,-0.625954198,-1.134860051,0.010178117,22.73
52:53.2,0.247400838,9.514557397,2.236184351,-0.821882952,-1.323155216,0.078880407,22.72333333
52:53.3,0.27852546,9.523336137,2.284866451,-1.269720102,-1.119592875,-0.175572519,22.72333333
52:53.4,0.205901343,9.496999919,2.306414266,-1.371501272,-0.842239186,-0.763358779,22.72333333
52:53.4,0.142854032,9.425173869,2.252943762,-1.292620865,-1.72519084,-0.575063613,22.72333333
52:53.5,0.035913025,9.402029919,2.299231661,-1.17302799,-3.702290076,-0.358778626,22.71666667
52:53.6,0.090979663,9.394847314,2.284068384,-1.048346056,-3.837150127,0.03562341,22.71
52:53.6,0.10614294,9.386068575,2.380634517,-1.165394402,-2.633587786,-0.002544529,22.71666667
52:53.7,0.151632772,9.395645382,2.347115694,-1.045801527,-0.666666667,-0.155216285,22.72333333
52:53.8,0.153228906,9.391655046,2.373451912,-1.157760814,-0.796437659,0.284987277,22.73
52:53.8,0.212285881,9.388462777,2.34551956,-1.050890585,-1.262086514,0.211195929,22.73
52:53.9,0.232237561,9.406020256,2.306414266,-0.796437659,-2.129770992,0.798982188,22.73
