Time,Acc-X,Acc-Y,Acc-Z,Gyro-X,Gyro-Y,Gyro-Z,Ambient Temp
09:43.0,-3.766079211,7.838616235,3.124433167,6.832061069,-7.465648855,5.435114504,23.35
09:43.1,-3.53384165,8.111555225,3.335122913,7.167938931,-6.671755725,0.923664122,23.35
09:43.3,-3.452438794,8.358157996,3.445256189,3.671755725,0.648854962,-2.801526718,23.41
09:43.4,-3.567360474,8.389282617,3.430890979,1.595419847,-5.152671756,4.923664122,23.39
09:43.5,-3.617638708,7.999027747,2.990357874,-4.641221374,-6.900763359,-3.748091603,23.39
09:43.7,-3.816357446,7.958326318,3.193865015,1.198473282,-3.877862595,4.267175573,23.39
09:43.8,-3.299209888,8.489839087,3.51947644,-8.671755725,-12.40458015,-1.519083969,23.37
09:43.9,-3.952826941,8.68137522,3.184288208,-6.091603053,-20.29770992,2.442748092,23.39
09:44.1,-3.926490723,8.286331946,3.564966272,5.961832061,7.770992366,5.091603053,23.41
09:44.2,-3.411737366,8.259995728,3.490746021,1.183206107,-0.465648855,-2.488549618,23.41
09:44.3,-3.646369128,7.984662537,3.478775012,-3.992366412,-0.312977099,-1.450381679,23.41
09:44.5,-3.315969299,8.202534888,3.023876697,-0.549618321,-5.618320611,-2.335877863,23.37
09:44.6,-3.653551733,8.346186987,2.975992664,5.335877863,2.458015267,15.45801527,23.41
09:44.7,-3.830722656,8.743624463,3.679887952,-0.496183206,-2.351145038,1.511450382,23.39
09:44.9,-3.392583752,8.224082703,3.433285181,-9.114503817,-17.52671756,-11.42748092,23.41
09:45.0,-3.50511123,7.984662537,2.975992664,-6.786259542,1.488549618,-3.832061069,23.39
09:45.1,-3.435679382,8.374917407,3.658340137,-0.267175573,7.076335878,-0.900763359,23.37
09:45.3,-3.150769385,7.838616235,3.055001318,-10.29007634,5.641221374,10.54198473,23.39
09:45.4,-3.411737366,8.384494214,4.558559961,-5.923664122,3.72519084,1.167938931,23.41
09:45.5,-3.031059302,2.932897034,-2.559401575,46.02290076,19.29770992,3.152671756,23.39
09:45.7,-2.873041992,7.706935144,3.220201233,-37.02290076,-21.41221374,-8.763358779,23.39
09:45.8,-2.051830823,6.936002209,2.542642163,10.96183206,-20.5648855,19.51145038,23.37
09:45.9,-3.964797949,8.72447085,3.347093921,6.717557252,-3.770992366,-4.374045802,23.39
09:46.1,-3.160346191,8.243236316,3.066972327,0.465648855,-2.625954198,3.229007634,23.39
09:46.3,-3.883395093,8.14746825,2.870647791,-2.366412214,0.465648855,2.27480916,23.41
09:46.5,-3.904942908,8.571241943,3.035847705,-0.740458015,-9.145038168,-0.106870229,23.37
09:46.6,-3.284844678,8.01818136,2.477998718,0.366412214,-12.36641221,-1.603053435,23.41
09:46.8,-4.19703551,8.312668164,2.760514514,0.519083969,-5.969465649,-13.67175573,23.41
09:46.9,-3.722983582,7.649474304,2.870647791,3.908396947,3.923664122,-0.488549618,23.39
09:47.0,-4.129997864,8.389282617,3.323151904,4.374045802,-38.23664122,-5.770992366,23.39
09:47.2,-3.062183923,8.190563879,3.801992236,-2.374045802,-52.21374046,-8.27480916,23.39
09:47.3,-4.565742566,7.366958508,3.315969299,12.99236641,-32.61832061,-15.84732824,23.41
09:47.4,-2.904166614,8.073247998,3.943250134,8.465648855,-22.15267176,-20.47328244,23.39
09:47.6,-3.081337537,7.963114722,4.582501978,0.442748092,-81.89312977,-18.41221374,23.39
09:47.7,-2.439691492,7.481880188,5.226542224,0.34351145,-4.038167939,-16.35877863,23.41
09:47.9,-3.603273499,7.242460022,4.699817859,-9.671755725,2.190839695,-2.633587786,23.43
09:48.0,-2.801215942,7.704540942,5.506663818,1.671755725,10.55725191,1.763358779,23.39
09:48.1,-3.323151904,7.438784558,4.944026428,3.229007634,-2.190839695,-2.770992366,23.41
09:48.3,-3.050212915,7.28316145,5.154716174,4.564885496,-4.496183206,-3.198473282,23.41
09:48.4,-3.18668241,7.333439685,4.934449622,4.404580153,-11.59541985,-4.648854962,23.41
09:48.5,-3.150769385,7.208941199,4.78840332,3.526717557,-11.4351145,-5.900763359,23.41
09:48.7,-3.095702747,7.608772876,4.857835168,0.595419847,-4.763358779,-3.297709924,23.41
09:48.8,-2.892195605,7.570465649,4.809951135,1.79389313,-0.877862595,2.541984733,23.37
09:48.9,-2.470816113,8.094795813,5.585672473,5.13740458,13.80152672,-4.564885496,23.39
09:49.1,-2.425326282,9.12909093,4.838681555,-5.183206107,2.496183206,10.64885496,23.43
09:49.2,-4.651933826,7.575254053,4.903325,-3.824427481,-31.54961832,8.977099237,23.43
09:49.3,-3.507505432,7.857769849,4.965574243,-1.557251908,6.625954198,-35.21374046,23.41
09:49.5,-3.545812659,7.582436658,4.642357019,11.57251908,14.93129771,-28.65648855,23.43
09:49.6,-3.497928625,7.280767249,4.884171387,2.297709924,26.29770992,-21.91603053,23.41
09:49.7,-3.782838623,7.220912207,4.752490295,-2.65648855,-0.86259542,10.00763359,23.41
09:50.0,-0.51954176,7.422025146,7.862558252,2.580152672,-9.038167939,-15.24427481,23.41
09:50.1,-2.504334937,7.230489014,4.177881897,7.732824427,-27.52671756,42.83206107,23.41
09:50.2,-2.46602771,7.098807922,5.403713147,12.32824427,-29.13740458,15.67938931,23.39
09:50.4,-2.858676782,7.97508573,5.686228943,-17.42748092,100.3740458,-37.47328244,23.39
09:50.5,-1.242590662,7.105990527,4.144363074,4.312977099,-6.809160305,8.312977099,23.41
09:50.6,-2.329558215,7.599196069,4.97515105,0.534351145,-3.679389313,2.900763359,23.37
09:50.8,-2.875436194,7.594407666,5.188234998,-1.045801527,-0.091603053,-0.961832061,23.41
09:50.9,-2.664746448,7.788338,4.881777185,-2.671755725,-3.167938931,-1.198473282,23.41
09:51.0,-2.748543506,7.630320691,5.195417603,-3.618320611,-22.05343511,-3.167938931,23.41
09:51.2,-2.37983645,7.410054138,5.140350964,-2.297709924,-5.679389313,-0.770992366,23.41
09:51.3,-2.772485522,7.524975818,5.288791467,-5.038167939,-12.5648855,-5.809160305,23.39
09:51.4,-1.838746875,7.144297754,5.293579871,-3.503816794,-16.19847328,-5.946564885,23.41
09:51.6,-2.183511914,8.171410266,3.016694092,5.824427481,-29.19083969,11.12977099,23.41
09:51.7,-3.495534424,7.544129431,5.762843396,6.496183206,2.786259542,-10.7480916,23.39
09:51.8,-2.559401575,7.419630945,5.295974072,-7.755725191,101.5954198,9.671755725,23.41
09:52.0,-6.303932971,6.349422803,2.540247961,14.10687023,185.9236641,15.51908397,23.43
09:52.1,-6.548141541,8.094795813,1.596932507,31.23664122,-2.038167939,29.71755725,23.43
09:52.2,-5.204994409,8.250418921,1.000776294,12.32061069,-22.65648855,29.38167939,23.41
09:52.4,-3.64876333,8.549694128,1.575384692,5.328244275,-69.95419847,20.96183206,23.45
09:52.5,-3.292027283,9.097966309,2.205059729,17.83206107,-36.54198473,29.78625954,23.43
09:52.6,-2.375048047,9.423577734,2.535459558,-0.86259542,-2.251908397,15.26717557,23.43
09:52.8,-2.061407629,9.703699329,3.0286651,-18.87022901,-24.29007634,-10.55725191,23.43
09:52.9,-1.920149731,8.123526233,2.918531824,-8.251908397,-7.190839695,-14.22900763,23.43
09:53.0,-2.013523596,7.88889447,3.359064929,10.27480916,-32.26717557,-5.541984733,23.45
09:53.2,-1.953668555,9.040505469,3.337517114,4.72519084,-27.41984733,-8.259541985,23.43
09:53.4,-1.84592948,7.374141113,3.603273499,22.94656489,-4.251908397,-3.549618321,23.41
09:53.6,-2.585737793,8.152256653,1.292868896,18.1221374,-9.030534351,-19.38931298,23.41
09:53.7,-3.325546106,9.124302527,1.084573352,28.77862595,-25.58778626,-8.648854962,23.43
09:53.9,-3.038241907,8.856151941,0.766144531,13.67175573,-20.16793893,-0.977099237,23.43
09:54.1,-3.754108203,9.10036051,0.581791003,13.80916031,-22.48854962,21.9389313,23.45
09:54.3,-3.655945935,9.239224207,1.266532678,32.12977099,-66.12977099,26.4351145,23.43
09:54.4,-2.877830396,10.75475386,2.557007373,-11.32061069,-24.75572519,13.1221374,23.43
09:54.6,-0.825999573,9.3732995,0.407014282,-71.45801527,-8.893129771,-61.42748092,23.43
09:54.7,-3.311180896,8.324639172,0.940921252,20.8778626,-4.045801527,-27.9389313,23.43
09:54.9,-3.459621399,9.294290845,2.169146704,54.16793893,-41.6259542,17.51145038,23.43
09:55.1,-7.445967163,5.276820459,1.247379065,58.97709924,-60.78625954,-61.22137405,23.45
09:55.3,-2.726995691,12.14339082,-1.460463013,-68.63358779,-84.88549618,-40.34351145,23.45
09:55.5,-4.786009119,8.329427576,1.199495032,9.824427481,-37.7480916,-16.21374046,23.43
09:55.7,-1.529894861,8.264784131,2.492363928,30.83206107,14.90839695,4.763358779,23.45
09:55.9,-6.349422803,9.076418494,3.404554761,-4.41221374,-0.961832061,46.45038168,23.45
09:56.1,-4.062960217,7.146691956,1.690306372,-7.122137405,-14.51908397,12.57251908,23.43
09:56.3,-4.91769021,7.785943799,2.734178296,-17.80152672,-34.65648855,-1.992366412,23.45
09:56.4,-4.22576593,7.673416321,2.329558215,-1.641221374,-30.32061069,-14.59541985,23.43
09:56.7,-3.488351819,8.853757739,2.91374342,27.39694656,-44.09923664,-17.73282443,23.45
09:56.9,-2.078167041,9.519345801,2.659958044,19.99236641,-43.44274809,-14.78625954,23.45
09:57.1,-2.935291235,8.324639172,1.580173096,11.36641221,-32.70229008,3.13740458,23.45
09:57.2,-3.912125513,8.803479504,1.570596289,13.02290076,-18.58778626,1.290076336,23.43
09:57.5,-2.616862415,9.471461768,1.853112085,-3.038167939,0.564885496,-1.847328244,23.49
09:57.6,-2.99993468,8.597578162,1.556231079,-13.70992366,16.16793893,-0.442748092,23.49
09:57.7,-2.892195605,8.429984045,1.644816541,-4.847328244,18.94656489,17.66412214,23.45
09:57.9,-2.226607544,9.425971936,1.936909143,-3.580152672,33.54961832,18.91603053,23.45
09:58.0,-1.886630908,9.234435803,2.468421912,-3.900763359,17.44274809,8.694656489,23.49
09:58.2,-2.047042419,8.767566479,2.516305945,-5.923664122,2.366412214,13.06870229,23.45
09:58.4,-1.88902511,8.980650427,2.274491577,-1.244274809,-2.694656489,5.954198473,23.43
09:58.6,-1.493981836,9.18655177,2.348711829,-3.870229008,-9.984732824,-4.030534351,23.45
09:58.8,-1.527500659,9.31583866,2.305616199,-3.839694656,-0.106870229,-4.427480916,23.45
09:59.0,-1.34075293,9.761160168,2.020706201,-7.839694656,-10.83969466,-2.595419847,23.45
09:59.3,-1.441309399,8.963891016,2.183511914,6.015267176,-32.45038168,-7.396946565,23.51
09:59.4,-2.063801831,8.877699756,1.158793604,14.40458015,-28.88549618,-10.1221374,23.51
09:59.5,-1.675941162,9.545682019,0.227449158,27.49618321,-13.14503817,-5.183206107,23.51
09:59.6,-2.882618799,10.50096848,0.866701001,-7.79389313,-28.3740458,-15.63358779,23.51
09:59.7,-2.066196033,9.306261853,0.538695374,-28.29007634,-14.29770992,-8.610687023,23.51
09:59.9,-1.908178723,9.196128577,1.022324109,-32.59541985,-9.175572519,-10.96183206,23.49
10:00.0,-2.00394679,8.920795386,2.60967981,-12.07633588,-6.236641221,-1.328244275,23.51
10:00.1,-2.039859814,8.626308582,3.332728711,11.54961832,-7.106870229,10.54198473,23.51
10:00.2,-1.405396375,8.008604553,3.277662073,-0.419847328,4.27480916,-1.557251908,23.53
10:00.3,-0.940921252,7.501033801,2.688688464,10.80152672,-3.786259542,-12.26717557,23.53
10:00.5,-2.923320227,8.925583789,3.119644763,23.08396947,12.73282443,9.152671756,23.49
10:00.6,-2.130839478,9.447519751,2.992752075,15.83206107,10.45801527,1.954198473,23.51
10:00.7,-3.430890979,9.442731348,1.958456958,7.885496183,13.17557252,-3.679389313,23.51
10:00.8,-1.783680237,9.165003955,1.599326709,7.419847328,-21.22137405,1.664122137,23.53
10:00.9,-3.203441821,9.284714038,1.582567297,3.801526718,-24.38931298,-0.450381679,23.49
10:01.1,-2.159569897,9.282319836,1.335964526,6.450381679,-6.045801527,1.374045802,23.51
10:01.2,-2.748543506,10.2423947,1.101332764,-9.419847328,0.244274809,-0.778625954,23.53
10:01.3,-2.102109058,9.617508069,0.948103857,-24.40458015,7.511450382,-5.236641221,23.53
10:01.4,-2.331952417,9.083601099,0.660799658,-8.541984733,13.97709924,16.10687023,23.53
10:01.5,-2.205059729,8.863334546,1.247379065,11.38167939,2.41221374,38.87022901,23.53
10:01.7,-1.68791217,9.062053284,1.596932507,3.770992366,4.908396947,34.07633588,23.53
10:01.8,-1.314416711,10.2423947,1.714248389,-13.02290076,23.28244275,13.21374046,23.55
10:01.9,-0.766144531,8.899247571,2.40856687,-19.44274809,14.33587786,-9.977099237,23.53
10:02.0,-0.342370837,8.489839087,2.46602771,-17.03816794,15.19083969,-3.671755725,23.55
10:02.1,-1.187524023,9.119514124,2.506729138,-3.65648855,9.381679389,-3.213740458,23.55
10:02.3,-1.060631335,8.956708411,2.973598462,12.11450382,-7.427480916,-4.244274809,23.53
10:02.4,-1.668758557,9.737218152,2.504334937,3.618320611,-21.25954198,-5.816793893,23.53
10:02.5,-1.137245789,9.323021265,1.247379065,-8.015267176,8.374045802,-17.29770992,23.55
10:02.6,-1.78846864,9.380482104,1.508347046,-1.374045802,-2.076335878,-7.595419847,23.53
10:02.7,-2.334346619,10.06761798,2.370259644,-6.801526718,-2.65648855,-6.458015267,23.53
10:02.9,-2.011129395,9.342174878,2.102109058,-0.488549618,0.618320611,-7.480916031,23.55
10:03.0,-1.434126794,8.966285217,1.561019482,-2.870229008,-2.190839695,-0.557251908,23.55
10:03.1,-2.140416284,9.418789331,1.848323682,0.603053435,-2.534351145,4.442748092,23.53
10:03.2,-2.274491577,9.148244543,2.027888806,-1.167938931,-2.603053435,1.114503817,23.53
10:03.3,-2.006340991,8.973467822,2.030283008,0.954198473,-9.961832061,-0.435114504,23.53
10:03.5,-1.537077466,9.516951599,1.233013855,1.335877863,-0.916030534,7.114503817,23.55
10:03.6,-2.109291663,8.066065393,2.047042419,-7.152671756,-7.839694656,-2.114503817,23.55
10:03.7,-1.414973181,9.746794958,2.130839478,-1.335877863,-16.58015267,1.595419847,23.55
10:03.8,-2.056619226,8.997409839,2.214636536,9.061068702,0.740458015,-2.519083969,23.55
10:03.9,-0.991199487,9.955090503,2.49475813,-1.419847328,19.95419847,9.267175573,23.55
10:04.1,-2.145204687,9.840168823,3.019088293,-12.34351145,49.38931298,15.71755725,23.55
10:04.2,-2.341529224,8.542511523,2.49475813,-26.96183206,15.44274809,-7.893129771,23.53
10:04.3,-2.075772839,8.367734802,1.192312427,-22.11450382,-18.83206107,-11.74045802,23.57
10:04.4,-1.8746599,8.894459167,1.434126794,1.702290076,-1.740458015,-5.396946565,23.59
10:04.5,-1.058237134,8.655039001,1.94648595,16.40458015,-21.19083969,-8.091603053,23.57
10:04.7,-1.314416711,8.801085303,2.731784094,19.30534351,11.41984733,13.78625954,23.57
10:04.8,-1.496376038,9.483432776,2.616862415,12.87022901,-13.44274809,17.47328244,23.53
10:04.9,-2.102109058,9.416395129,2.27927998,5.106870229,-13.38931298,11.45038168,23.55
10:05.0,-1.798045447,9.279925635,1.838746875,-0.534351145,-1.114503817,-8.488549618,23.51
10:05.1,-1.024718311,9.402029919,1.833958472,-4.404580153,-7.41221374,-14.78625954,23.55
10:05.3,-1.055842932,9.246406812,1.994369983,-0.152671756,2.190839695,-0.870229008,23.57
10:05.4,-1.604115112,9.20091698,1.891419312,0.717557252,7.267175573,4.969465649,23.59
10:05.5,-1.572990491,9.184157568,1.896207715,-0.961832061,4.755725191,4.702290076,23.57
10:05.6,-1.821987463,9.148244543,1.692700574,-1.122137405,8.717557252,-0.389312977,23.57
10:05.7,-1.32638772,9.404424121,1.821987463,-1.671755725,-1.809160305,-0.198473282,23.57
10:05.9,-1.726219397,9.083601099,1.707065784,-0.633587786,-5.702290076,-2.541984733,23.55
10:06.0,-1.855506287,9.07163009,1.75973822,3.106870229,-17.48091603,-7.244274809,23.55
10:06.1,-1.675941162,8.588001355,1.740584607,4.977099237,-24.30534351,-15.87022901,23.55
10:06.2,-1.912967126,9.923965881,1.632845532,6.763358779,-40.53435115,-18.70229008,23.59
10:06.3,-3.062183923,10.48899747,2.655169641,1.938931298,5.312977099,7.832061069,23.57
10:06.5,-2.059013428,9.181763367,1.201889233,-12.40458015,-3.213740458,-25.28244275,23.57
10:06.6,-1.278503687,9.107543115,1.699883179,9.709923664,-28.3740458,5.503816794,23.57
10:06.7,-1.934514941,9.004592444,1.699883179,2.061068702,-19.66412214,3.755725191,23.55
10:06.8,-2.142810486,10.40998882,1.036689319,-25.67938931,46.64885496,-8.251908397,23.57
10:06.9,-2.497152332,8.597578162,1.783680237,-10.36641221,-12.30534351,-6.618320611,23.57
10:07.1,-2.257732166,8.578424548,1.467645618,-2.282442748,12.14503817,20.60305344,23.57
10:07.2,-3.538630054,9.184157568,3.473986609,-5,42.03816794,12.65648855,23.57
10:07.3,-2.518700146,9.002198242,1.800439648,1.885496183,-20.3129771,2.625954198,23.59
10:07.4,-2.420537878,8.899247571,1.927332336,1.511450382,-7.79389313,1.061068702,23.57
10:07.5,-2.300827795,9.009380847,1.91775553,1.816793893,-6.022900763,0.007633588,23.59
10:07.7,-2.317587207,9.066841687,1.881842505,3.091603053,-5.633587786,1.595419847,23.57
10:07.8,-2.27927998,9.224858997,1.738190405,0.267175573,-5.320610687,0.65648855,23.57
10:07.9,-2.018312,9.023746057,1.661575952,-1.290076336,-0.877862595,0.129770992,23.59
10:08.0,-2.202665527,9.203311182,1.881842505,-1.809160305,0.923664122,0.839694656,23.59
10:08.1,-2.176329309,9.026140259,1.764526624,-1.908396947,3.389312977,0.694656489,23.57
10:08.3,-2.291250989,9.119514124,1.821987463,-1.610687023,1.160305344,0.328244275,23.61
10:08.4,-2.252943762,9.203311182,1.697488977,-0.633587786,1,1.633587786,23.59
10:08.5,-2.133233679,9.21528219,1.604115112,-0.801526718,-2.190839695,0.297709924,23.61
10:08.6,-2.154781494,9.27274303,1.841141077,-0.961832061,-3.198473282,0.572519084,23.59
10:08.7,-2.260126367,9.181763367,1.723825195,-1.114503817,-3.419847328,1.679389313,23.59
10:08.9,-2.166752502,9.20091698,1.714248389,-3.893129771,-2.503816794,0.572519084,23.59
10:09.0,-2.207453931,9.102754712,1.821987463,-1.335877863,-0.038167939,1.58778626,23.59
10:09.1,-2.159569897,9.109937317,1.833958472,-1.022900763,-1.511450382,0.511450382,23.61
10:09.2,-2.231395947,9.332598071,1.833958472,-2.229007634,-1.20610687,-0.076335878,23.61
10:09.3,-2.126051074,9.05726488,1.850717883,-2.175572519,-0.20610687,0.832061069,23.59
10:09.5,-2.063801831,9.095572107,1.867477295,-2.496183206,-0.290076336,0.717557252,23.63
10:09.6,-2.255337964,9.20091698,1.982398975,-2.503816794,-1.854961832,0.419847328,23.61
10:09.7,-2.032677209,9.102754712,1.987187378,-1.450381679,-2.320610687,0.748091603,23.61
10:09.8,-2.159569897,8.911218579,1.848323682,-2.419847328,-0.305343511,-0.244274809,23.61
10:09.9,-2.252943762,9.090783704,1.877054102,-3.114503817,2.763358779,0.641221374,23.61
10:10.1,-2.070984436,9.138667737,1.84592948,-1.534351145,0.801526718,1.778625954,23.59
10:10.2,-2.288856787,9.136273535,1.881842505,-2.045801527,-0.625954198,2.229007634,23.59
10:10.3,-2.367865442,9.167398157,2.061407629,-0.877862595,-2.351145038,0.442748092,23.61
10:10.4,-2.001552588,9.150638745,1.900996118,1.93129771,-3.022900763,0.229007634,23.63
10:10.5,-2.240972754,9.150638745,2.008735193,1.511450382,-4.549618321,0.312977099,23.59
10:10.7,-2.231395947,9.102754712,1.776497632,1.053435115,-3.503816794,0.213740458,23.63
10:10.8,-1.958456958,9.131485132,2.118868469,-2.076335878,0.442748092,0.053435115,23.59
10:10.9,-2.288856787,9.181763367,1.862688892,-1.427480916,-1.106870229,0.72519084,23.59
10:11.0,-1.987187378,9.047688074,2.049436621,-0.679389313,-3.603053435,0.778625954,23.61
10:11.1,-1.994369983,9.205705383,2.059013428,-1.748091603,12.98473282,1.06870229,23.61
10:11.3,-2.070984436,9.303867651,1.496376038,3.122137405,10.16793893,8.938931298,23.61
10:11.4,-1.965639563,8.904035974,1.453280408,11.5648855,-20.61068702,2.312977099,23.61
10:11.5,-0.64882865,9.97903252,0.830787976,4.175572519,12.54198473,7.610687023,23.63
10:11.6,-2.456450903,9.267954626,1.671152759,2.297709924,-2.27480916,19.41984733,23.63
10:11.7,-2.020706201,9.227253198,1.508347046,0.93129771,18.58015267,12.69465649,23.61
10:11.9,-1.209071838,9.842563025,0.869095203,-10.16030534,6.076335878,4.312977099,23.61
10:12.0,-0.840364783,9.153032947,1.414973181,1.717557252,-16.00763359,6.633587786,23.63
10:12.1,-1.379060156,9.303867651,1.549048474,-4.572519084,14.72519084,1.190839695,23.63
10:12.2,-1.352723938,9.516951599,1.395819568,-2.801526718,7.534351145,0.450381679,23.63
10:12.4,-1.601720911,9.15782135,1.474828223,-2.58778626,-5.908396947,0.404580153,23.59
10:12.5,-1.438915198,9.406818323,1.395819568,2.213740458,-10.77099237,-1.351145038,23.61
10:12.6,-1.568202087,9.27274303,1.539471667,6.152671756,-17.10687023,-1.450381679,23.59
10:12.7,-2.035071411,9.473855969,1.307234106,11.03816794,-19.29007634,-5.847328244,23.59
10:12.8,-1.328781921,9.528922607,0.849941589,10.15267176,-41.45801527,-2.732824427,23.63
10:13.0,-1.663970154,9.567229834,0.833182178,11.38167939,-26.77099237,5.625954198,23.61
10:13.1,-1.094150159,9.83538042,0.845153186,8.030534351,-41.44274809,3.908396947,23.61
10:13.2,-1.209071838,9.758765967,0.998382092,-1.58778626,-40.92366412,2.06870229,23.61
10:13.3,-0.737414111,9.789890588,0.730231506,-12.83206107,-25.19847328,-1.702290076,23.61
10:13.4,-0.758961926,9.593566052,0.742202515,-11.63358779,-19,-10.29007634,23.63
10:13.5,-0.328005627,9.421183533,0.687135876,-5.488549618,-2.870229008,-5.572519084,23.63
10:13.7,-0.524330164,9.574412439,1.16837041,3.251908397,2.786259542,3.755725191,23.61
10:13.8,-0.418985291,9.761160168,1.113303772,-1.122137405,8.603053435,9.564885496,23.65
10:14.0,-0.842758984,9.765948572,1.635239734,-21.12977099,42.49618321,-8.900763359,23.61
10:14.1,-0.330399829,9.627084875,1.855506287,-25.49618321,37.96183206,-10.51908397,23.63
10:14.3,-1.379060156,8.621520178,1.707065784,-15.87022901,51.67175573,2.603053435,23.63
10:14.4,-1.233013855,9.332598071,1.98958158,-14.48091603,47.20610687,18.86259542,23.63
10:14.5,-2.006340991,9.023746057,1.675941162,-8.297709924,49.52671756,9.694656489,23.65
10:14.6,-1.879448303,9.066841687,1.699883179,7.099236641,32.69465649,18.08396947,23.65
10:14.8,-2.576160986,9.366116895,2.355894434,-6.870229008,28.58015267,-8.671755725,23.61
10:15.0,-2.066196033,9.236830005,1.70227738,-5.801526718,11.72519084,-12.67175573,23.65
10:15.2,-2.37983645,9.236830005,1.244984863,-13.90076336,16.80152672,-7.114503817,23.65
10:15.4,-2.219424939,9.064447485,1.429338391,0.297709924,2.480916031,4.93129771,23.63
10:15.5,-2.243366956,9.397241516,1.649604944,2.709923664,-6.053435115,2.893129771,23.63
10:15.6,-2.296039392,9.208099585,1.647210742,1.534351145,-5.549618321,3.190839695,23.65
10:15.9,-2.360682837,9.270348828,1.484405029,0.396946565,-10.66412214,-0.885496183,23.63
10:16.0,-2.025494604,9.351751685,1.628057129,1.633587786,-11.67175573,-1.534351145,23.65
10:16.2,-1.778891833,9.208099585,1.453280408,2.320610687,-16.92366412,3.824427481,23.65
10:16.3,-1.704671582,9.25837782,1.575384692,4.519083969,-11.50381679,5.396946565,23.65
10:16.5,-1.94648595,9.334992273,1.719036792,2.213740458,-9.183206107,-0.480916031,23.65
10:16.8,-1.853112085,9.404424121,1.395819568,-0.809160305,-8.854961832,-2.488549618,23.65
10:17.0,-1.374271753,9.320627063,1.8746599,-1.351145038,-7.824427481,-6.618320611,23.63
10:17.1,-1.290474695,9.457096558,1.783680237,-3.770992366,-0.618320611,2.763358779,23.65
10:17.3,-1.7310078,9.234435803,1.936909143,0.572519084,-5.282442748,-2.534351145,23.65
10:17.5,-1.843535278,9.224858997,1.635239734,0.908396947,-7.396946565,-1.34351145,23.65
10:17.8,-1.630451331,9.349357483,1.651999146,-0.809160305,-1.610687023,0.854961832,23.65
10:18.0,-1.891419312,9.25837782,1.549048474,-3.473282443,3.732824427,-1.969465649,23.67
10:18.1,-2.128445276,9.234435803,1.81719906,-1.641221374,-0.480916031,-0.954198473,23.67
10:18.3,-1.98958158,9.306261853,1.663970154,-2.687022901,-2.442748092,-1.564885496,23.67
10:18.5,-1.924938135,9.141061938,1.577778894,-1.496183206,-0.229007634,-0.335877863,23.67
10:18.8,-1.958456958,9.579200842,1.474828223,-2.816793893,4.687022901,2.198473282,23.67
10:18.9,-1.78846864,9.342174878,1.905784521,1.65648855,-8.244274809,3.473282443,23.71
10:19.1,-2.001552588,9.153032947,1.762132422,-1.244274809,3.419847328,1.122137405,23.71
10:19.3,-1.738190405,9.339780676,1.757344019,-3.145038168,-0.106870229,0.732824427,23.67
10:19.6,-2.358288635,9.24401261,1.910572925,-3.091603053,-22.84732824,0.267175573,23.71
10:19.7,-1.606509314,9.07163009,1.333570325,-4.358778626,-14.01526718,-9.251908397,23.71
10:19.8,-0.861912598,9.05726488,2.015917798,2.534351145,9.709923664,4.114503817,23.67
10:20.0,-2.176329309,9.469067566,1.750161414,-2.030534351,27.83206107,4.122137405,23.71
10:20.1,-2.427720483,8.923189587,1.783680237,-2.916030534,3.244274809,2.870229008,23.67
10:20.2,-1.853112085,9.289502441,1.991975781,2.175572519,-2.572519084,5.045801527,23.73
10:20.3,-2.240972754,9.088389502,2.140416284,0.770992366,-8.251908397,7.381679389,23.71
10:20.5,-1.541865869,9.461884961,1.189918225,-7.938931298,-2.229007634,-11.65648855,23.73
10:20.6,-1.376665955,9.24401261,2.243366956,-3.183206107,-18.20610687,-4.755725191,23.75
10:20.7,-1.71664259,9.464279163,1.539471667,-6.358778626,23.24427481,6.328244275,23.71
10:20.9,-1.86029469,9.167398157,2.346317627,-4.091603053,8.152671756,4.633587786,23.71
10:21.0,-1.783680237,8.990227234,2.231395947,-1.885496183,-3.557251908,5.183206107,23.71
10:21.1,-2.114080066,9.102754712,2.231395947,-1.374045802,-4.335877863,2.595419847,23.71
10:21.3,-1.71664259,9.232041602,2.303221997,2.923664122,-20.86259542,0.251908397,23.67
10:21.4,-1.374271753,9.253589417,2.035071411,-0.320610687,-21.03816794,-7.061068702,23.71
10:21.5,-1.034295117,9.282319836,2.001552588,-4.022900763,-0.65648855,-4.709923664,23.73
10:21.7,-1.537077466,9.222464795,2.327164014,-5.106870229,8.908396947,-1.312977099,23.73
10:21.8,-1.640028137,9.040505469,2.193088721,-4.770992366,5.053435115,-0.213740458,23.71
10:21.9,-2.231395947,9.275137231,2.50912334,0.435114504,4.099236641,2.938931298,23.71
10:22.1,-1.707065784,9.023746057,2.025494604,-0.259541985,0.885496183,5.030534351,23.73
10:22.2,-1.446097803,9.119514124,2.231395947,-0.458015267,-2.244274809,2.335877863,23.71
10:22.3,-1.513135449,9.30147345,2.042254016,-0.488549618,-2.564885496,0.786259542,23.71
10:22.5,-1.582567297,9.248801013,2.29364519,-3.198473282,3.435114504,0.923664122,23.75
10:22.6,-1.477222424,9.064447485,2.250549561,-2.969465649,10.06870229,-1.34351145,23.75
10:22.7,-1.431732593,9.045293872,2.238578552,4.045801527,-7.320610687,12.35877863,23.73
10:22.9,-1.101332764,9.631873279,1.742978809,-11.38931298,28.63358779,9.091603053,23.73
10:23.0,-1.25456167,9.124302527,1.501164441,-1.190839695,11.38931298,12.0610687,23.75
10:23.2,-1.264138477,9.433154541,1.884236707,4.435114504,1.977099237,5.732824427,23.71
10:23.4,-1.68791217,9.236830005,2.547430566,-5.183206107,-6.885496183,-13.38931298,23.75
10:23.6,-0.964863269,8.892064966,1.905784521,-1.938931298,5.381679389,-16.36641221,23.73
10:23.9,-1.036689319,9.378087903,1.769315027,9.854961832,-8.465648855,-3.160305344,23.75
10:24.0,-1.537077466,9.294290845,1.328781921,2.832061069,-20.07633588,-4.809160305,23.73
10:24.2,-1.929726538,10.48660327,1.491587634,-2.664122137,5.27480916,-1.709923664,23.71
10:24.4,-1.814804858,9.765948572,1.118092175,0.86259542,-9.900763359,14.22900763,23.71
10:24.6,-2.054225024,9.430760339,0.864306799,4.946564885,-3.72519084,-5.664122137,23.73
10:24.9,-1.323993518,9.588777649,1.338358728,-0.282442748,-3.122137405,0.595419847,23.71
10:25.1,-1.778891833,9.79228479,1.300051501,-2.534351145,-3.916030534,1.65648855,23.71
10:25.3,-1.900996118,9.246406812,1.259350073,-0.740458015,-1.755725191,-0.610687023,23.71
10:25.5,-1.496376038,9.504980591,1.448492004,-1.381679389,-4.122137405,-0.786259542,23.73
10:25.7,-1.750161414,9.461884961,1.237802258,-1.488549618,-1.770992366,1.633587786,23.73
10:25.8,-1.77410343,9.299079248,1.288080493,-1.79389313,-0.358778626,0.610687023,23.75
10:26.0,-1.908178723,9.445125549,1.300051501,-1.450381679,-3.923664122,-0.305343511,23.71
10:26.2,-1.795651245,9.397241516,1.228225452,-0.557251908,-2.984732824,-1.145038168,23.75
10:26.4,-1.618480322,9.569624036,1.841141077,-0.969465649,6.221374046,3.641221374,23.71
10:26.6,-1.671152759,9.018957654,1.565807886,-2.526717557,0.114503817,2.816793893,23.73
10:26.7,-1.939303345,8.916006982,1.477222424,0.694656489,8.290076336,-0.946564885,23.73
10:26.9,-2.432508887,9.15782135,1.173158813,9.969465649,1.27480916,12.70992366,23.75
10:27.1,-2.937685437,9.165003955,1.455674609,5.06870229,-14.30534351,28.16030534,23.73
10:27.4,-1.776497632,13.34528005,0.679953271,-30.6259542,3.351145038,-11.28244275,23.75
10:27.5,0.409408484,6.337451794,1.25456167,-5.893129771,23.82442748,-7.381679389,23.73
10:27.7,-0.454898315,8.468291272,2.284068384,-6.511450382,-23.06870229,-1.496183206,23.75
10:27.9,-3.088520142,10.58955394,3.588908289,13.46564885,-0.816793893,-2.511450382,23.73
10:28.1,-2.202665527,9.605537061,0.272938989,-15.42748092,-92.07633588,-41.57251908,23.75
10:28.3,-0.871489404,8.140285645,0.390254871,-19.96183206,-60.24427481,-39.22137405,23.73
10:28.5,-0.517147559,8.305485559,1.810016455,3.549618321,12.48854962,37.1221374,23.73
10:28.7,-4.264073157,6.945579016,3.596090894,24.22137405,18.32824427,13.88549618,23.73
10:28.9,-2.980781067,7.235277417,2.094926453,19.69465649,18.24427481,12.83969466,23.75
10:29.0,-2.602497205,8.583212952,4.220977527,12.79389313,-30.40458015,-7,23.73
10:29.2,-3.208230225,16.50562625,2.42293208,-12.94656489,8.610687023,-23.81679389,23.75
10:29.4,-0.900219824,7.489062793,0.414196887,-13.94656489,-58.90076336,-44.41221374,23.73
10:29.6,-0.555454785,8.267178333,0.799663354,8.488549618,-1.763358779,10.96946565,23.73
10:29.8,-3.711012573,8.683769421,3.404554761,36.6259542,31.13740458,42.66412214,23.73
10:29.9,-1.151610999,6.773196497,2.085349646,5.34351145,-19.16793893,15.77862595,23.75
10:30.2,-1.587355701,10.27591353,2.049436621,-16.41221374,-57.04580153,-39.89312977,23.67
10:30.4,-2.396595862,8.362946399,0.011971008,-12.75572519,-114.8015267,-59.42748092,23.73
10:30.6,-0.775721338,7.615955481,-0.416591089,-17.9389313,-6.503816794,-23.29770992,23.71
10:30.8,0.495599744,15.83764398,1.501164441,6.580152672,11.57251908,62.59541985,23.67
10:31.1,-0.052672437,6.813897925,2.032677209,22.42748092,-12.26717557,3.610687023,23.67
10:31.3,-2.796427539,8.518569507,3.12922157,9.41221374,18.61068702,-32.26717557,23.67
10:31.5,-3.375824341,11.45625494,1.742978809,-12.3129771,-21.10687023,-38.04580153,23.71
10:31.7,-0.754173523,7.163451367,0.938527051,-11.03053435,-16.26717557,-3.694656489,23.71
10:31.8,-1.101332764,8.650250598,1.891419312,3.908396947,11.55725191,40.84732824,23.71
10:32.1,-3.50511123,7.776366992,3.488351819,16.26717557,69.70229008,7.946564885,23.67
10:32.3,-3.957615344,7.048529687,2.434903088,-6.419847328,-25.22900763,-1.778625954,23.71
10:32.5,-2.817975354,11.25993041,2.952050647,-4.732824427,0.885496183,-32.54961832,23.71
10:32.6,-2.504334937,7.043741284,1.719036792,-2.86259542,36.53435115,-30.34351145,23.71
10:32.8,-0.280121594,9.622296472,1.024718311,-13.47328244,-25.38167939,-0.236641221,23.71
10:33.0,-1.06781394,7.953537915,1.132457385,-3.099236641,35.66412214,32.89312977,23.71
10:33.2,-2.063801831,11.07557688,2.231395947,-1.015267176,85.15267176,47.13740458,23.73
10:33.4,-1.22583125,7.797914807,2.817975354,-14.16793893,30.83969466,-24.55725191,23.73
10:33.5,-1.604115112,8.303091357,2.681505859,-0.160305344,-1.847328244,4.167938931,23.71
10:33.7,-2.149993091,8.518569507,3.184288208,6.221374046,-18.29007634,-12.36641221,23.75
10:33.9,-2.56658418,7.86016405,1.616086121,8.480916031,-40.03816794,-15.48854962,23.73
10:34.1,-1.630451331,8.858546143,0.888248816,1.625954198,-29.06870229,-15.85496183,23.75
10:34.3,-1.424549988,8.358157996,1.910572925,9.320610687,-0.13740458,6.190839695,23.75
10:34.5,-1.549048474,9.481038574,2.202665527,2.625954198,3.847328244,19.48091603,23.73
10:34.7,-1.465251416,9.179369165,1.987187378,-3.534351145,2.839694656,4.41221374,23.73
10:34.9,-1.537077466,9.081206897,1.956062756,-2.358778626,0.916030534,7.580152672,23.75
10:35.1,-1.577778894,9.174580762,1.742978809,-8.801526718,12.58778626,-4.480916031,23.77
10:35.2,-1.331176123,9.311050256,1.8746599,0.419847328,8.816793893,4.480916031,23.73
10:35.5,-0.938527051,9.440337146,1.795651245,-15.17557252,32.90076336,-4.557251908,23.73
10:35.7,-0.857124194,8.669404211,2.432508887,-22.3129771,68.66412214,13.70229008,23.75
10:35.9,-2.221819141,8.834604126,-0.031124622,-51.63358779,119.6717557,18.82442748,23.75
10:36.0,-3.184288208,10.31422075,-0.531512769,-32.53435115,144.6335878,40.59541985,23.75
10:36.2,-3.193865015,9.742006555,-0.301669409,-47.29007634,127.2366412,49.49618321,23.77
10:36.5,-3.308786694,7.795520605,2.353500232,-23.70229008,91.32824427,33.67938931,23.75
10:36.7,-3.184288208,8.772354883,2.762908716,-10.93129771,35.8778626,24.79389313,23.77
10:36.9,-2.554613171,8.192958081,2.564189978,2.366412214,16.97709924,0.335877863,23.77
10:37.1,-3.026270898,10.52012209,2.413355273,15.16793893,-48.39694656,28.35114504,23.75
10:37.3,-2.528276953,8.025363965,1.685517969,7.022900763,-10.19847328,-5.419847328,23.75
10:37.6,-1.185129822,11.90157645,1.587355701,-1.41221374,27.51908397,33.45801527,23.75
10:37.8,-1.022324109,8.188169678,2.039859814,-10.09160305,-9.320610687,-9.091603053,23.77
10:38.0,-1.403002173,7.982268335,2.403778467,-5.832061069,-2.58778626,-18.08396947,23.77
10:38.2,-3.167528796,14.40112299,3.337517114,-7.908396947,28.72519084,-21.91603053,23.75
10:38.5,-1.256955872,7.108384729,0.768538733,-17.24427481,-98.29007634,-50.35877863,23.77
10:38.7,-0.186747729,7.261613635,0.979228479,6.763358779,17.86259542,-0.13740458,23.77
10:38.8,-0.454898315,14.22395206,2.205059729,19.60305344,14.77099237,85.51908397,23.75
10:39.0,-0.806845959,7.582436658,1.922543933,-29.90076336,-32.67938931,-30.53435115,23.73
10:39.2,-3.016694092,7.733271362,2.657563843,17.48091603,-10.89312977,-5.305343511,23.75
10:39.5,-3.687070557,9.986215125,1.508347046,1.648854962,-10.02290076,-31.22900763,23.79
10:39.6,-1.482010828,8.034940771,1.070208142,-4.946564885,-83.79389313,-24.76335878,23.75
10:39.7,-0.957680664,6.909665991,1.106121167,-13.30534351,-39.17557252,-28.25954198,23.79
10:39.9,-0.598550415,15.98608448,0.893037219,11.98473282,70.67175573,81.22137405,23.77
10:40.2,-1.2976573,7.38371792,1.446097803,-10.51908397,86.69465649,25.60305344,23.77
10:40.4,-3.617638708,8.901641772,1.90339032,1.458015267,53.47328244,-4.145038168,23.75
10:40.5,-1.058237134,15.1409313,2.217030737,-14.76335878,54.58015267,3.503816794,23.77
10:40.7,-1.671152759,7.443572961,1.256955872,-6.236641221,-35.4351145,2.129770992,23.73
10:40.9,-1.065419739,9.583989246,1.015141504,-18.19083969,17.67175573,2.374045802,23.77
10:41.2,-1.953668555,8.813056311,2.92810863,-8.015267176,71.30534351,9.86259542,23.77
10:41.3,-1.022324109,6.488286499,2.097320654,-16.4351145,25.50381679,6.450381679,23.75
10:41.5,-3.430890979,7.951143713,2.52348855,26.05343511,20.57251908,17.03816794,23.77
10:41.7,-3.888183496,11.75792435,2.276885779,-18.3129771,26.57251908,-5.358778626,23.77
10:41.8,-2.147598889,9.70609353,0.296881006,-23.70229008,-109.5954198,-56.21374046,23.77
10:42.1,-0.62009823,7.34062229,0.553060583,-1.076335878,-10.87022901,-8.183206107,23.75
10:42.3,-0.622492432,13.88636963,1.879448303,-12.32061069,54.59541985,62.99236641,23.75
10:42.5,-1.417367383,5.820304236,1.295263098,3.290076336,16.35877863,22.54198473,23.75
10:42.7,-2.949656445,9.01416925,3.205836023,8.977099237,-20.29770992,-38.13740458,23.77
10:42.9,-3.361459131,10.06043538,1.271321082,-13.42748092,-83.4351145,-56.24427481,23.75
10:43.2,-0.967257471,7.223306409,0.557848987,-6.65648855,-19.32824427,-10.34351145,23.75
10:43.4,-2.238578552,13.13219611,2.300827795,23.17557252,19.83969466,101.9083969,23.73
10:43.6,-4.594472986,8.604760767,2.489969727,-7.442748092,-51.09160305,-38.02290076,23.75
10:43.8,-2.940079639,9.619902271,0.371101257,43.83969466,-201.3587786,-27.12977099,23.75
10:44.0,-1.805228052,9.591171851,-1.055842932,25.65648855,-139.6335878,-28.49618321,23.75
10:44.2,-2.688688464,9.327809668,-2.121262671,49.90839695,-134.6717557,-18.0610687,23.73
10:44.4,-2.906560815,9.351751685,-0.330399829,27.48091603,-89.24427481,-6.160305344,23.75
10:44.6,-2.173935107,9.536105212,-0.670376465,15.48854962,-106.0229008,-19.92366412,23.75
10:44.7,-1.80283385,10.45069025,-0.067037646,-1.977099237,-83.75572519,-24.75572519,23.73
10:45.0,0.088585461,9.904812268,1.920149731,-25.05343511,-7.396946565,-39.77862595,23.71
10:45.2,-1.84592948,8.317456567,2.188300317,21.44274809,-55.26717557,4.763358779,23.73
10:45.4,-1.941697546,11.71004032,3.052607117,31.35114504,-56.32824427,11.93129771,23.75
10:45.5,-3.095702747,7.115567334,4.13957467,20.04580153,-87.88549618,30.2519084,23.73
10:45.7,0.442927307,7.745242371,1.386242761,-64.26717557,-71.25954198,-35.7480916,23.75
10:46.0,-0.828393774,7.489062793,1.094150159,1.213740458,64.95419847,-14.60305344,23.73
10:46.2,-3.452438794,7.963114722,2.104503259,-5.435114504,100.2442748,6.641221374,23.73
10:46.3,-3.682282153,7.788338,2.753331909,10.01526718,5.114503817,20.6259542,23.75
10:46.5,-4.132392065,9.3732995,1.364694946,22.19847328,-4.671755725,50.16793893,23.75
10:46.8,-2.60967981,9.3732995,0.751779321,29.44274809,-81.29770992,14.60305344,23.77
10:47.0,-2.703053674,11.05642327,0.804451758,-20.27480916,-113.8396947,-19.42748092,23.77
10:47.1,-1.28329209,10.59913075,-0.430956299,-42.90839695,-86.24427481,-62.83206107,23.75
10:47.2,-0.220266553,9.715670337,-0.02873042,-24.38931298,-41.03816794,-35.41984733,23.73
10:47.4,-0.730231506,8.607154968,2.27927998,10.65648855,-38.19083969,15.83206107,23.75
10:47.7,-0.900219824,8.470685474,3.150769385,4.06870229,5.900763359,32.22137405,23.77
10:47.9,-1.175553015,9.035717065,3.296815686,8.58778626,-10.48091603,6.427480916,23.75
10:48.0,-2.243366956,9.179369165,2.585737793,-4.702290076,-8.129770992,-36.07633588,23.75
10:48.2,-1.838746875,9.145850342,1.80283385,-22.04580153,-43.58778626,-59.41984733,23.75
10:48.4,-2.628833423,9.430760339,2.889801404,14.51145038,-36.8778626,-27.95419847,23.75
10:48.7,-2.885013,7.991845142,2.33674082,25.96183206,-44.45038168,-14.03053435,23.77
10:48.8,-2.679111658,8.216900098,3.033453503,26.66412214,-25.61068702,-25.90839695,23.75
10:49.0,-3.428496777,9.76355437,1.824381665,11.55725191,3.603053435,2.152671756,23.73
10:49.2,-2.863465186,10.02691655,0.507570752,25.67175573,-60.51145038,17.19847328,23.75
10:49.4,-1.39821377,10.3860468,0.912190833,9.618320611,-55.54198473,10.74045802,23.73
10:49.6,-2.813186951,9.452308154,1.357512341,12.88549618,-35.18320611,1.061068702,23.75
10:49.8,-0.893037219,9.588777649,1.163582007,-1.183206107,-20.27480916,-9.603053435,23.77
10:50.0,-1.565807886,9.277531433,1.798045447,-8.610687023,0.79389313,0.114503817,23.77
10:50.2,-0.905008228,9.265560425,2.090138049,0.374045802,-5.717557252,1.839694656,23.75
10:50.4,-1.278503687,9.385270508,2.49475813,0.854961832,-5.854961832,6.923664122,23.75
10:50.6,-1.628057129,9.600748657,2.375048047,-6.969465649,2.167938931,-0.34351145,23.75
10:50.8,-3.397372156,8.49462749,2.935291235,-0.778625954,63.22900763,3.160305344,23.75
10:51.0,1.05344873,7.769184387,4.204218115,-5.65648855,-56.15267176,-4.244274809,23.73
10:51.2,-1.620874524,8.961496814,5.0469771,-34.70229008,-117.1068702,-24.40458015,23.77
10:51.5,0.478840332,8.190563879,5.719747766,-6.015267176,-65.51145038,-27.32061069,23.73
10:51.7,0.840364783,7.769184387,5.418078357,-25.40458015,-80.46564885,-26.94656489,23.77
10:51.9,1.142034192,7.208941199,5.204994409,2.679389313,-30.22900763,-24.64122137,23.77
10:52.1,2.047042419,8.456320264,5.877765076,-5.496183206,-24.97709924,-30.78625954,23.75
10:52.2,0.761356128,7.596801868,6.153098267,7.236641221,-7.183206107,6.671755725,23.75
10:52.5,1.735796204,7.524975818,5.204994409,3.839694656,0.312977099,-2.328244275,23.77
10:52.7,0.857124194,7.632714893,6.687005237,-4.86259542,6.526717557,3.465648855,23.77
10:52.9,2.193088721,6.598419775,6.208164905,-15.54961832,-24.09923664,-62.12977099,23.79
10:53.0,0.495599744,6.995857251,7.508216406,-5.229007634,-18.87022901,-60.40458015,23.81
10:53.2,-1.321599316,8.686163623,7.984662537,-0.496183206,-30.66412214,-33.48091603,23.79
10:53.4,-1.604115112,6.378153223,6.370970618,6.244274809,-5.832061069,-14.36641221,23.77
10:53.6,-0.349553442,7.967903125,8.279149341,9.129770992,-2.20610687,-8.580152672,23.79
10:53.8,-1.122880579,7.630320691,6.643909607,5.816793893,-30.58778626,4.694656489,23.77
10:54.0,-0.74938512,6.64869801,5.513846423,-6.58778626,-20.69465649,-7.404580153,23.79
10:54.3,-0.428562097,6.84981095,6.658274817,-4.190839695,-11.54198473,-25.41984733,23.77
10:54.5,0.950498059,5.942408521,5.872976672,-2.503816794,14.83969466,-1.58778626,23.77
10:54.7,-3.497928625,6.945579016,6.74925448,-3.755725191,31.16793893,-20.5648855,23.79
10:54.9,-3.371035938,6.248866333,6.083666418,5.946564885,13.8778626,6.450381679,23.77
10:55.1,-3.801992236,4.307168787,5.729324573,0.305343511,28.97709924,8.809160305,23.79
10:55.4,-2.810792749,6.651092212,4.87459458,22.75572519,57.57251908,-2.305343511,23.79
10:55.6,-0.746990918,5.384559534,5.066130713,31.51908397,-20.61832061,2.190839695,23.79
10:55.7,-3.655945935,7.762001782,4.015076184,29.22137405,-8.778625954,-10.22137405,23.79
10:55.9,-4.316745593,7.762001782,3.521870642,31.63358779,-2.320610687,-6.389312977,23.79
10:56.2,-4.086902234,7.879317664,4.017470386,6.030534351,-28.1221374,-8.839694656,23.79
10:56.4,-3.955221143,7.613561279,3.016694092,8.916030534,-29.05343511,-9.65648855,23.79
10:56.5,-4.201823914,7.769184387,2.171540906,37.79389313,-4.106870229,-14.04580153,23.79
10:56.6,-3.210624426,8.037334973,3.01429989,27.16793893,-47.08396947,-14.16030534,23.81
10:56.7,-2.810792749,8.690952026,4.094084839,20.70229008,-22.16793893,0.083969466,23.81
10:56.9,-4.716577271,8.549694128,2.858676782,6.465648855,0.198473282,1.984732824,23.79
10:57.1,-6.275202551,8.542511523,4.752490295,-7.427480916,-0.145038168,-5.145038168,23.83
10:57.2,-10.01733975,8.068459595,6.900089185,-71.94656489,-116.1068702,-103.1908397,23.81
10:57.3,-4.38378324,6.756437085,3.134009973,-89.71755725,-27.73282443,-93.35877863,23.81
10:57.4,-1.630451331,4.726154077,3.196259216,-41.10687023,10.51908397,-30.03816794,23.83
10:57.6,-4.841075757,4.390965845,5.327098694,15.09923664,55.85496183,17.71755725,23.81
10:57.7,-6.24407793,3.701435767,5.746083984,-1.145038168,2.221374046,28.03816794,23.81
10:57.8,-5.489904407,5.157110376,5.169081384,-8.526717557,23.95419847,30.3740458,23.81
10:58.0,-6.394912634,4.496310718,5.145139368,1.030534351,12.2519084,38.76335878,23.81
10:58.1,-6.394912634,5.094861133,4.939238025,-8.290076336,18.86259542,19.48854962,23.79
10:58.2,-5.863399866,4.96078584,4.12520946,-0.709923664,30.41984733,25.97709924,23.81
10:58.4,-5.932831714,5.817910034,3.768473413,11.95419847,4.465648855,37.76335878,23.81
10:58.5,-6.150704065,6.646303809,4.062960217,4.938931298,7.435114504,27.1221374,23.81
10:58.6,-4.704606262,6.030993982,2.851494177,11.08396947,0.618320611,32.38931298,23.81
10:58.8,-4.726154077,8.518569507,3.718195178,12.57251908,15.80152672,28.20610687,23.81
10:58.9,-4.077325427,7.635109094,3.07176073,2.961832061,8.748091603,25.48854962,23.81
10:59.0,-4.924872815,7.972691528,2.861070984,1.870229008,5.679389313,6.366412214,23.81
10:59.2,-4.41251366,8.070853796,3.122038965,-0.290076336,-9.664122137,3.213740458,23.85
10:59.3,-5.219359619,7.977479932,2.731784094,1.366412214,0.419847328,9.305343511,23.83
10:59.4,-4.273649963,8.434772449,2.212242334,0.396946565,-11.57251908,-1.038167939,23.79
10:59.6,-4.331110803,8.441955054,2.238578552,11.71755725,-38.81679389,8.702290076,23.83
10:59.7,-3.627215515,8.621520178,3.023876697,-0.938931298,-32.2519084,10.74045802,23.81
10:59.8,-2.741360901,8.547299927,2.997540479,-2.694656489,-15.59541985,3.396946565,23.85
11:00.0,-2.444479895,8.760383875,3.189076611,-0.984732824,-0.969465649,-0.160305344,23.83
11:00.1,-3.07176073,8.59518396,3.344699719,0.496183206,4.648854962,1.259541985,23.83
11:00.2,-2.904166614,8.398859424,3.394977954,-2.175572519,1.183206107,2.175572519,23.79
11:00.4,-3.088520142,8.449137659,3.0286651,-0.381679389,-2.229007634,-0.351145038,23.83
11:00.5,-3.01429989,8.406042029,2.604891406,4.160305344,-1.091603053,0.694656489,23.83
11:00.6,-3.023876697,8.13310304,3.332728711,2.503816794,-4.900763359,-1.648854962,23.81
11:00.8,-2.559401575,8.355763794,3.050212915,-4.938931298,-6.305343511,-3.450381679,23.83
11:00.9,-3.009511487,8.410830432,2.906560815,1.473282443,-7.664122137,6.847328244,23.85
11:01.0,-1.680729565,8.073247998,2.360682837,9.977099237,-17.77862595,11.84732824,23.83
11:01.1,-2.592920398,8.449137659,2.966415857,1.427480916,-2.709923664,-1.007633588,23.81
11:01.3,-2.636016028,8.111555225,2.513911743,5.79389313,-13.47328244,6.038167939,23.83
11:01.4,-2.533065356,8.73883606,3.53384165,2.076335878,-8.015267176,13.78625954,23.85
11:01.5,-2.533065356,8.968679419,3.198653418,2.916030534,-1.694656489,1.770992366,23.83
11:01.7,-2.614468213,10.11310781,3.227383838,-18.54198473,-1.282442748,2.442748092,23.83
11:01.8,0.011971008,8.42280144,3.82114585,-6.694656489,28.36641221,-74.22137405,23.85
11:01.9,-3.464409802,8.097190015,2.975992664,-1.282442748,-23.93129771,-2.541984733,23.85
11:02.1,-3.50511123,8.329427576,3.023876697,0.496183206,3.839694656,-0.091603053,23.81
11:02.2,-2.906560815,8.346186987,3.177105603,2.122137405,8.389312977,-1.763358779,23.83
11:02.4,-3.112462158,8.561665137,3.265691064,0.465648855,2.938931298,3.190839695,23.83
11:02.5,-3.311180896,8.420407239,3.344699719,0.717557252,4.954198473,1.190839695,23.83
11:02.6,-3.1723172,8.439560852,2.767697119,3.900763359,-7.435114504,2.702290076,23.85
11:02.8,-2.841917371,8.322244971,3.083731738,0.79389313,-0.282442748,6.679389313,23.85
11:02.9,-2.856282581,8.367734802,2.389413257,-1.282442748,1.061068702,0.183206107,23.83
11:03.0,-3.162740393,8.846575134,3.18668241,2.244274809,3.763358779,-0.221374046,23.85
11:03.1,-3.308786694,8.722076648,3.035847705,-0.984732824,2.381679389,-1.022900763,23.83
11:03.3,-3.272873669,8.293514551,2.621650818,-1.129770992,-1.877862595,1.580152672,23.83
11:03.4,-3.117250562,8.597578162,2.647987036,-7.396946565,0.961832061,-4.488549618,23.85
11:03.5,-3.296815686,8.489839087,2.904166614,2.251908397,-2.167938931,-0.259541985,23.83
11:03.7,-3.318363501,8.568847742,2.726995691,-2.832061069,-0.366412214,-1,23.81
11:03.8,-3.442861987,8.303091357,2.56658418,0.045801527,3,2.290076336,23.85
11:04.0,-4.230554333,8.212111694,2.312798804,7.480916031,-14.51908397,-1.038167939,23.83
11:04.1,-3.047818713,8.786720093,2.782062329,-2.709923664,-12.1221374,-7.198473282,23.85
11:04.2,-3.414131567,8.60954917,2.075772839,0.916030534,-6.20610687,-4.79389313,23.87
11:04.3,-2.844311572,8.221688501,2.382230652,5.175572519,1.465648855,-2.458015267,23.87
11:04.5,-2.911349219,8.621520178,3.191470813,-3.534351145,4.717557252,-1.351145038,23.83
11:04.6,-3.53384165,8.975862024,2.796427539,-6.389312977,-0.79389313,-2.984732824,23.83
11:04.7,-3.608061902,8.631096985,2.731784094,-1.20610687,9.694656489,-0.167938931,23.83
11:04.9,-3.541024255,8.420407239,2.614468213,-1.328244275,-4.702290076,3.717557252,23.83
11:05.0,-3.665522742,9.17218656,2.647987036,4.427480916,-12.22137405,1.740458015,23.85
11:05.1,-3.007117285,8.798691101,2.817975354,-0.259541985,-1.328244275,3.72519084,23.85
11:05.3,-3.483563416,8.68137522,2.513911743,1.549618321,-10.6870229,2.190839695,23.85
11:05.4,-2.777273926,8.410830432,2.554613171,0.557251908,7.885496183,-1.877862595,23.83
11:05.5,-2.89937821,8.288726147,2.738966699,2.572519084,5.671755725,0.755725191,23.85
11:05.7,-3.270479468,8.559270935,2.743755103,0.06870229,-0.534351145,-3.167938931,23.85
11:05.8,-3.193865015,8.427589844,2.516305945,-1.335877863,-2.885496183,1.427480916,23.89
11:05.9,-3.450044592,8.743624463,2.501940735,-0.969465649,1.259541985,-0.770992366,23.85
11:06.1,-2.736572498,8.868122949,2.499546533,0.236641221,7.366412214,-4.381679389,23.85
11:06.2,-3.167528796,9.117119922,2.454056702,-0.198473282,3.961832061,2.435114504,23.85
11:06.3,-3.134009973,7.87452926,2.250549561,-4.122137405,-1.534351145,-3.229007634,23.85
11:06.5,-2.130839478,9.538499414,2.477998718,-4.167938931,-29.78625954,-0.893129771,23.83
11:06.6,-2.806004346,7.524975818,2.331952417,-0.022900763,-1.511450382,-4.389312977,23.87
11:06.7,-3.615244507,8.956708411,2.726995691,-1.198473282,0.977099237,-2.045801527,23.87
11:06.9,-3.433285181,9.176974963,2.557007373,-0.06870229,-10.2519084,4.908396947,23.85
11:07.0,-2.748543506,8.55208833,2.427720483,0.603053435,-1.244274809,8.702290076,23.87
11:07.1,-1.855506287,8.63827959,3.711012573,-3,0.099236641,7.282442748,23.87
11:07.2,-2.846705774,8.851363538,2.767697119,-5.549618321,-12.50381679,4.687022901,23.85
11:07.4,-4.158728284,9.933542688,2.533065356,-0.129770992,14.09160305,-9.709923664,23.87
11:07.5,-2.121262671,7.769184387,2.89937821,-10.16030534,22.94656489,-27.75572519,23.89
11:07.6,-3.890577698,8.516175305,3.179499805,5.58778626,-18.65648855,28,23.87
11:07.8,-2.243366956,8.729259253,2.863465186,-6.839694656,-23.10687023,2.992366412,23.85
11:07.9,-2.164358301,8.070853796,2.671929053,-2.992366412,63.61832061,-34.54961832,23.85
11:08.0,-3.670311145,8.520963708,2.590526196,-0.396946565,-2.885496183,1.79389313,23.85
11:08.2,-3.406948962,8.300697156,2.52348855,-1.27480916,-2.603053435,1.282442748,23.85
11:08.3,-3.476380811,8.532934717,2.50912334,-0.618320611,-4.175572519,0.618320611,23.85
11:08.4,-3.289633081,8.49462749,2.578555188,-1.717557252,1.175572519,0.969465649,23.85
11:08.6,-3.270479468,8.391676819,2.303221997,-0.954198473,3.320610687,-0.190839695,23.87
11:08.7,-3.22977804,8.444349255,2.403778467,-0.320610687,5.79389313,2.267175573,23.83
11:08.9,-3.526659045,8.348581189,2.439691492,9.984732824,18.03053435,-0.160305344,23.87
11:09.0,-3.801992236,8.564059338,1.549048474,1.839694656,14.13740458,0.320610687,23.87
11:09.1,-5.035006091,8.863334546,1.848323682,-0.34351145,-3.458015267,-21.69465649,23.87
11:09.3,-3.967192151,8.058882788,1.616086121,-0.106870229,27.88549618,-26.95419847,23.87
11:09.4,-4.357447021,8.219294299,1.338358728,4.389312977,7.86259542,10.66412214,23.87
11:09.5,-3.864241479,8.822633118,2.250549561,0.13740458,3.381679389,19.35114504,23.87
11:09.7,-3.888183496,8.042123376,1.644816541,0.740458015,-2.305343511,27.14503817,23.87
11:09.8,-4.546588953,8.846575134,1.580173096,-11.72519084,1.732824427,5.526717557,23.89
