Time,Acc-X,Acc-Y,Acc-Z,Gyro-X,Gyro-Y,Gyro-Z,Ambient Temp
12:20.7,-0.988007218,2.934493168,0.712674028,-0.384223919,-0.577608142,0.295165394,7.963333333
12:20.7,-1.991975781,5.884149613,1.362300745,-0.829516539,-1.496183206,0.470737913,15.92666667
12:20.8,-2.980781067,8.844180933,2.023100403,-0.944020356,-2.760814249,0.559796438,23.91
12:20.8,-2.936089303,8.836998328,1.996764185,-0.928753181,-3.351145038,-0.007633588,23.93
12:20.8,-2.860272917,8.822633118,2.094926453,-0.900763359,-4.600508906,-0.297709924,23.94333333
12:20.9,-2.781264262,8.80188337,2.149195024,-1.399491094,-4.055979644,-0.402035623,23.93666667
12:20.9,-2.792437203,8.829017655,2.137224015,-1.875318066,-2.521628499,-0.216284987,23.93666667
12:21.0,-2.85069611,8.896055302,2.075772839,-2.043256997,-0.740458015,-0.134860051,23.94333333
12:21.0,-2.861070984,8.88807463,2.069388302,-2.231552163,-0.58778626,-0.086513995,23.95
12:21.1,-2.845907707,8.880093958,2.119666536,-2.020356234,-0.699745547,0.038167939,23.94333333
12:21.1,-2.83074443,8.821036983,2.165954435,-2.259541985,0.06870229,0.720101781,23.93666667
12:21.2,-2.887407202,8.833007992,2.149993091,-1.882951654,0.223918575,0.959287532,23.93
12:21.2,-2.910551152,8.814652445,2.18750225,-2.1043257,0.312977099,0.842239186,23.93
12:21.2,-2.833138631,8.770758748,2.102907125,-2.386768448,1.305343511,-0.150127226,23.93666667
12:21.3,-2.699861405,8.844979,2.087743848,-1.320610687,4.366412214,0.318066158,23.94333333
12:21.3,-2.724601489,8.846575134,2.265712838,2.040712468,7.633587786,4.407124682,23.94333333
12:21.4,-3.019886361,8.71569211,2.381432585,4.488549618,4.117048346,7.165394402,23.93666667
12:21.4,-3.223393502,8.794700765,2.312798804,3.55216285,-4.185750636,6.575063613,23.93
12:21.5,-3.133211906,8.875305554,1.928928471,2.491094148,-9.600508906,3.608142494,23.93
12:21.5,-2.87942653,8.943939335,1.840343009,1.371501272,-6.623409669,0.857506361,23.93
12:21.6,-2.781264262,8.779537488,1.824381665,1.521628499,-3.089058524,0.229007634,23.93666667
12:21.6,-2.731784094,8.792306563,1.896207715,0.432569975,-4.229007634,-0.776081425,23.94333333
12:21.6,-2.56658418,8.980650427,1.948880151,-0.330788804,-4.353689567,-0.702290076,23.93
12:21.7,-2.558603507,9.052476477,2.113281999,-0.582697201,-0.460559796,-0.157760814,23.91
12:21.7,-2.699861405,8.90802631,2.174733175,-1.712468193,1.03562341,-0.391857506,23.91
12:21.8,-2.825956026,8.95112194,1.996764185,-2.178117048,-1.508905852,-0.368956743,23.93
12:21.8,-2.770889388,8.848969336,1.938505278,-1.753180662,-2.109414758,0.941475827,23.95
12:21.9,-2.775677791,8.88807463,2.00394679,-1.017811705,0.165394402,2.307888041,23.95
12:21.9,-2.936089303,8.742028328,2.177925444,-0.661577608,0.463104326,3.743002545,23.95
12:21.9,-2.988761739,8.867324882,2.136425948,-0.798982188,-1.994910941,2.251908397,23.95
12:22.0,-2.928906698,8.958304545,2.016715865,-1.155216285,-3.315521628,0.508905852,23.95
12:22.0,-2.765302917,8.993419503,1.871467631,-0.809160305,-2.786259542,-1.058524173,23.94333333
12:22.1,-2.723803422,9.039707402,1.853910152,-1.027989822,-2.849872774,-1.055979644,23.93666667
12:22.1,-2.631227625,9.036515133,1.844333346,-1.229007634,-1.106870229,-1.160305344,23.93
12:22.2,-2.670332918,9.054072611,1.883438639,-0.946564885,1.908396947,-0.872773537,23.93
12:22.2,-2.843513505,8.914410848,1.916159395,-1.122137405,4.58778626,-0.544529262,23.93666667
12:22.3,-3.001530815,8.774749084,1.921745866,-1.178117048,0.340966921,0.989821883,23.94333333
12:22.3,-2.991954008,8.792306563,2.043052083,-1.715012723,-1.941475827,0.376590331,23.95
12:22.3,-2.910551152,8.824229252,1.987985445,-2.506361323,-2.75826972,-0.681933842,23.94333333
12:22.4,-2.781264262,8.993419503,2.011927462,-2.470737913,1.157760814,-5.012722646,23.93666667
12:22.4,-2.799619808,8.972669755,1.956062756,-1.328244275,-3.430025445,-2.328244275,23.93
12:22.5,-2.784456531,9.043697738,1.991975781,-0.399491094,-7.305343511,-0.956743003,23.93
12:22.5,-2.610477877,9.001400175,1.996764185,-0.951653944,-7.040712468,2.030534351,23.93
12:22.6,-2.601699137,8.797094967,1.885034774,-2.419847328,-3.837150127,3.24173028,23.93
12:22.6,-2.549824768,8.800287236,1.837150741,-2.167938931,-3.786259542,5.089058524,23.93
12:22.6,-2.770091321,8.809864042,1.93770721,-1.51653944,-6.638676845,8.435114504,23.93
12:22.7,-2.824359892,9.006986646,2.07258057,-2.005089059,-3.348600509,4.603053435,23.93666667
12:22.7,-2.754129976,8.912016646,2.117272335,-3.211195929,5.083969466,1.089058524,23.94333333
12:22.8,-2.906560815,8.919199251,2.03826368,-2.834605598,8.340966921,-1.669211196,23.95
12:22.8,-2.704649809,8.848171269,2.149993091,-1.96437659,13.18320611,-3.809160305,23.94333333
12:22.9,-3.190672746,9.056466813,2.116474268,-1.409669211,5.618320611,-2.954198473,23.93666667
12:22.9,-3.161144259,8.799489168,2.037465613,-2.519083969,-1.755725191,-2.857506361,23.93
12:23.0,-3.131615771,8.886478495,1.805228052,-2.745547074,-14.25699746,0.809160305,23.93
12:23.0,-2.771687455,8.835402193,1.844333346,-2.707379135,-12.56234097,3.605597964,23.93666667
12:23.0,-2.6926788,8.880093958,1.970427966,-1.641221374,-2.977099237,6.328244275,23.94333333
12:23.1,-2.833138631,9.000602108,2.15877183,-4.13740458,5.050890585,9.600508906,23.94333333
12:23.1,-2.748543506,8.83061379,2.08694578,-5.007633588,8.096692112,6.31043257,23.93666667
12:23.2,-2.560997709,8.848969336,2.068590234,-4.17302799,9.063613232,1.157760814,23.93
12:23.2,-2.531469222,8.694942362,2.0669941,-1.256997455,12.65394402,-3.651399491,23.93
12:23.3,-2.612872078,8.682173287,2.160367965,0.72519084,16.27480916,-5.625954198,23.93
12:23.3,-2.771687455,8.907228243,2.122858805,0.513994911,18.80152672,-6.117048346,23.93
12:23.3,-3.019088293,8.827421521,1.912169059,0.531806616,20.90839695,-7.221374046,23.93
12:23.4,-3.085327873,8.732451522,1.852314018,0.539440204,21.87022901,-6.687022901,23.93
12:23.4,-3.402160559,8.646260262,1.720632926,-1.099236641,19.07888041,-5.814249364,23.93
12:23.4,-3.296017619,8.660625472,1.770113094,-2.338422392,16.8524173,-6.175572519,23.93
12:23.5,-3.355074593,8.83620026,1.740584607,-4.676844784,14.6692112,-6.788804071,23.91666667
12:23.5,-3.275267871,8.814652445,1.798843514,-3.493638677,13.14249364,-9.65394402,23.90333333
12:23.5,-3.301604089,8.876901689,1.796449312,-3.117048346,8.745547074,-9.066157761,23.89
12:23.6,-3.29282535,8.639077657,1.67354696,-3.055979644,6.229007634,-5.989821883,23.90333333
12:23.6,-3.334324845,8.71569211,1.644816541,-4.178117048,4.417302799,-1.776081425,23.91666667
12:23.7,-3.307988627,8.666211943,1.584961499,-4.547073791,7.267175573,0.407124682,23.93
12:23.7,-3.337517114,8.920795386,1.733402002,-3.910941476,9.770992366,3.374045802,23.93666667
12:23.7,-3.401362492,8.450733793,1.602518978,-3.432569975,8.195928753,3.463104326,23.94333333
12:23.8,-3.406150895,8.411628499,1.565009819,-1.913486005,5.124681934,0.595419847,23.94333333
12:23.8,-3.394977954,8.545703792,1.557029146,-1.045801527,3.946564885,-4.798982188,23.93666667
12:23.9,-3.517880306,8.699730766,1.562615617,-2.338422392,3.386768448,-4.941475827,23.93
12:23.9,-2.208251998,9.687737984,2.371855778,-3.666666667,-2.402035623,2.72519084,23.93
12:24.0,-1.434924862,9.177773031,2.390211324,2.147582697,-14.44274809,19.25954198,23.93
12:24.0,-1.129265116,9.959080839,2.920127958,5.592875318,-26.19083969,30.10687023,23.93666667
12:24.0,-2.737370565,9.491413448,2.464431576,7.264631043,-38.0178117,27.2264631,23.94333333
12:24.1,-3.237758712,9.611921598,2.526680819,-0.061068702,-37.53689567,7.203562341,23.95
12:24.1,-2.767697119,8.955910343,2.134829814,-2.236641221,-22.63104326,-7.770992366,23.95
12:24.2,-2.608083675,8.520165641,1.923342,-2.208651399,-3.213740458,-11.25445293,23.94333333
12:24.2,-3.167528796,8.7013269,1.94648595,0.022900763,-0.376590331,-3.709923664,23.93666667
12:24.3,-2.940877706,8.705317236,2.13004141,-1.323155216,-4.590330789,-3.254452926,23.93666667
12:24.3,-2.688688464,8.802681437,2.047840487,-2.944020356,-9.513994911,-3.246819338,23.94333333
12:24.4,-2.13882015,8.764374211,2.043850151,-3.816793893,-4.618320611,-5.030534351,23.94333333
12:24.4,-2.802812077,8.876901689,1.939303345,-2.045801527,-4.877862595,-1.073791349,23.93666667
12:24.4,-2.947262244,8.851363538,2.130839478,-1.045801527,-5.821882952,-0.076335878,23.93666667
12:24.5,-3.041434176,8.891266899,2.181117712,-0.882951654,-7.860050891,0.020356234,23.94333333
12:24.5,-2.96561779,8.87370942,2.287260653,-0.96692112,-8.422391858,-0.208651399,23.95
12:24.6,-2.820369556,8.75320127,2.308808468,-1.208651399,-9.753180662,-0.636132316,23.95
12:24.6,-2.788446867,8.726865051,2.276087712,-1.246819338,-9.839694656,-1.442748092,23.95
12:24.7,-2.740562834,8.748412866,2.211444267,-1.139949109,-8.854961832,-1.37913486,23.95
12:24.7,-2.837128967,8.823431185,2.146800822,-1.569974555,-8.582697201,-2.106870229,23.95
12:24.8,-2.991954008,8.869719084,2.201069393,-2.559796438,-13.38167939,-2.979643766,23.93
12:24.8,-3.130019637,8.848171269,2.321577543,-4.290076336,-21.92366412,-5.366412214,23.91
12:24.8,-3.097298881,8.789912362,2.499546533,-5.226463104,-28.69720102,-6.82697201,23.90333333
12:24.9,-2.94247384,8.709307572,2.556209306,-4.8956743,-28.20610687,-7.396946565,23.91666667
12:24.9,-2.868253589,8.667808077,2.61526628,-4.129770992,-22.98473282,-6.302798982,23.93666667
12:25.0,-2.810792749,8.632693119,2.5953146,-3.106870229,-17.94147583,-5.305343511,23.94333333
12:25.0,-2.75891838,8.649452531,2.634419893,-2.750636132,-13.96437659,-4.063613232,23.95666667
12:25.1,-2.703851742,8.664615808,2.655967708,-2.422391858,-9.918575064,-3.254452926,23.96333333
12:25.1,-2.755726111,8.662221606,2.72140922,-2.450381679,-7.41221374,-2.211195929,23.95666667
12:25.2,-2.822763757,8.62391438,2.842715438,-2.697201018,-9.1043257,-1.776081425,23.94333333
12:25.2,-2.989559806,8.619125977,3.002328882,-3.076335878,-16.89312977,-2.236641221,23.93
12:25.3,-2.998338546,8.588799422,3.093308545,-3.027989822,-24.84223919,-1.768447837,23.93666667
12:25.3,-2.964021655,8.542511523,3.138000309,-3.106870229,-28.50890585,-2.875318066,23.94333333
12:25.3,-2.745351237,8.512184969,3.118048629,-3.096692112,-25.63867684,-3.330788804,23.95
12:25.4,-2.65836191,8.529742448,3.108471822,-3.155216285,-20.18066158,-4.814249364,23.95
12:25.4,-2.643198633,8.525752112,3.15795199,-2.982188295,-18.28498728,-4.938931298,23.95
12:25.5,-2.569776449,8.497819759,3.238556779,-2.557251908,-17.39949109,-4.119592875,23.95
12:25.5,-2.489171659,8.449935726,3.372632072,-2.394402036,-13.956743,-3.592875318,23.95666667
12:25.6,-2.525882751,8.501810095,3.452438794,-2.374045802,-9.524173028,-3.396946565,23.96333333
12:25.6,-2.593718465,8.520963708,3.498726693,-2.290076336,-5.664122137,-3.335877863,23.95666667
12:25.6,-2.677515523,8.611943372,3.493938289,-2.608142494,-1.468193384,-3.160305344,23.94333333
12:25.7,-2.742158968,8.560069002,3.464409802,-2.956743003,-2.648854962,-3.083969466,23.93
12:25.8,-2.790841069,8.59518396,3.426102576,-3.562340967,-8.44783715,-3.753180662,23.93
12:25.8,-2.673525187,8.467493205,3.39896829,-4.936386768,-14.34605598,-4.445292621,23.93
12:25.9,-2.603295272,8.443551188,3.438871651,-6.34605598,-12.35368957,-4.315521628,23.93
12:25.9,-2.560199642,8.335812113,3.535437785,-7.572519084,-6.837150127,-4.071246819,23.93666667
12:26.0,-2.776475859,8.254409257,3.707820304,-7.58524173,-3.091603053,-4.402035623,23.94333333
12:26.0,-2.874638127,8.165025728,3.828328455,-6.918575064,-3.010178117,-4.974554707,23.93
12:26.1,-3.042232243,8.060478923,3.832318791,-5.727735369,-3.320610687,-5.625954198,23.91
12:26.1,-2.918531824,8.054094385,3.820347782,-3.992366412,-4.315521628,-4.671755725,23.91666667
12:26.1,-2.820369556,8.053296318,3.801992236,-2.715012723,-5.368956743,-3.842239186,23.94333333
12:26.2,-2.559401575,8.08122867,3.813165177,-1.755725191,-2.575063613,-1.745547074,23.95666667
12:26.2,-2.760514514,8.129910771,3.818751648,-1.534351145,-1.717557252,-1.424936387,23.94333333
12:26.3,-2.695871069,8.13868951,3.839501396,-1.486005089,0.709923664,0.012722646,23.93
12:26.3,-2.882618799,8.125122367,3.905740975,-1.511450382,0.977099237,0.170483461,23.93
12:26.4,-2.784456531,8.144275981,3.934471395,-1.295165394,3.203562341,1.842239186,23.93
12:26.4,-3.084529806,8.155448922,3.937663664,-0.933842239,2.475826972,1.977099237,23.93
12:26.5,-3.102885352,8.203332955,3.922500387,-0.631043257,-1.249363868,2.264631043,23.93
12:26.5,-3.102885352,8.128314636,3.91851005,0.259541985,-1.959287532,1.122137405,23.93666667
12:26.5,-2.907358883,8.157045056,3.899356437,0.608142494,-1.661577608,1.045801527,23.94333333
12:26.6,-3.047020646,8.133901107,3.843491732,1.025445293,-1.323155216,0.613231552,23.95
12:26.6,-3.061385856,8.312668164,3.774059884,0.34351145,-3.511450382,1.167938931,23.95
12:26.7,-3.016694092,8.229669173,3.741339128,-0.27735369,-3.089058524,-0.096692112,23.95
12:26.7,-2.804408211,8.220890434,3.74054106,-0.478371501,-1.427480916,0.201017812,23.95
12:26.8,-2.7876488,8.094795813,3.758098539,-0.427480916,-0.580152672,-0.366412214,23.95
12:26.8,-2.832340564,8.173804468,3.765281144,0.010178117,-1.659033079,0.142493639,23.95
12:26.8,-2.872243925,8.240842114,3.808376774,-0.256997455,-0.877862595,0.099236641,23.95
12:26.9,-2.932098966,8.224082703,3.822741984,-0.796437659,-0.236641221,0.06870229,23.94333333
12:26.9,-2.983973336,8.232861442,3.818751648,-1.231552163,-0.20610687,0.470737913,23.93666667
12:27.0,-2.997540479,8.186573543,3.777252153,-1.72519084,-0.600508906,0.368956743,23.93666667
12:27.0,-2.945666109,8.198544552,3.801992236,-1.768447837,-1.590330789,0.524173028,23.94333333
12:27.1,-2.937685437,8.170612199,3.852270471,-1.969465649,-1.432569975,-0.295165394,23.95
12:27.1,-2.940079639,8.19615035,3.828328455,-1.877862595,-2.547073791,-0.44783715,23.95
12:27.1,-2.93688737,8.207323291,3.842693665,-1.681933842,-2.839694656,-0.13740458,23.95
12:27.2,-2.918531824,8.213707829,3.829924589,-1.590330789,-2.944020356,0.534351145,23.94333333
12:27.2,-2.924118294,8.184977409,3.863443412,-1.600508906,-2.417302799,0.638676845,23.93666667
12:27.3,-2.948858378,8.199342619,3.870626017,-1.781170483,-2.356234097,0.284987277,23.93666667
12:27.3,-2.912945353,8.202534888,3.814761312,-1.615776081,-2.51653944,0.445292621,23.94333333
12:27.4,-2.881022664,8.212111694,3.88419316,-1.386768448,-2.541984733,0.318066158,23.95
12:27.4,-2.835532833,8.192160014,3.845087866,-1.27735369,-2.239185751,0.435114504,23.95
12:27.4,-2.790841069,8.028556234,3.804386438,-1.160305344,-4.318066158,1.363867684,23.94333333
12:27.5,-2.182713847,8.279947408,3.827530387,-0.284987277,-9.389312977,2.03307888,23.93666667
12:27.5,-2.288856787,8.244034383,3.913721647,-0.27735369,-5.819338422,3.704834606,23.93
12:27.6,-2.464431576,8.599972363,4.11084425,-2.1043257,-6.928753181,6.717557252,23.93
12:27.6,-2.987963672,8.093997746,3.931279126,-3.984732824,-3.374045802,7.770992366,23.93
12:27.7,-3.038241907,8.007806486,3.860251143,-4.007633588,1.796437659,11.32315522,23.94333333
12:27.7,-2.473210315,7.928797831,3.854664673,-2.384223919,7.89821883,19.57251908,23.95666667
12:27.8,-2.371057711,8.381301945,3.97597089,-0.544529262,4.882951654,32.10941476,23.94333333
12:27.8,-2.283270317,8.646260262,3.908135177,0.229007634,-1.994910941,34.61832061,23.91666667
12:27.9,-2.906560815,8.29670682,3.788425094,1.338422392,-0.778625954,22.41984733,23.91
12:27.9,-2.805206278,8.470685474,3.767675346,1.10178117,10.26717557,7.376590331,23.93
12:27.9,-2.525882751,8.261591862,3.888981563,0.315521628,12.47073791,0.353689567,23.95
12:28.0,-2.317587207,8.774749084,3.822741984,-0.366412214,11.86768448,-1.740458015,23.95
12:28.0,-2.304818132,8.524954045,3.827530387,-0.730279898,2.984732824,0.669211196,23.95
12:28.1,-2.277683846,8.649452531,3.820347782,-0.41475827,-5.081424936,0.727735369,23.95
12:28.1,-1.935313009,8.328629508,3.878606689,-1.073791349,-8.010178117,0.765903308,23.95
12:28.2,-1.869073429,8.564059338,3.84109753,-0.389312977,-2.541984733,-3.117048346,23.95
12:28.2,-1.691104439,8.538521187,3.829126522,-0.389312977,3.045801527,-5.050890585,23.95
12:28.2,-2.263318636,8.71569211,3.815559379,0.486005089,3.720101781,0.908396947,23.95
12:28.3,-2.620054683,8.369330937,3.843491732,0.363867684,-0.318066158,5.111959288,23.95
12:28.3,-2.874638127,8.227274972,3.744531396,-0.231552163,-0.147582697,4.501272265,23.95
12:28.4,-2.454854769,8.334215979,3.732560388,-1.307888041,2.506361323,-1.643765903,23.95
12:28.4,-1.948082084,8.688557825,3.733358455,-2.150127226,13.3129771,-4.702290076,23.95
12:28.5,-1.822785531,9.161811686,3.727771985,-1.295165394,12.8524173,-0.712468193,23.95
12:28.5,-1.69669091,9.230445467,3.698243498,-1.577608142,1.62086514,6.753180662,23.95666667
12:28.6,-1.817997127,9.140263871,3.707022237,-1.580152672,-15.99236641,15.34351145,23.96333333
12:28.6,-1.74537301,8.814652445,3.622427112,-4.127226463,-16.33842239,18.83715013,23.95666667
12:28.6,-1.663172087,8.611943372,3.57693728,-6.389312977,-13.91857506,18.46819338,23.94333333
12:28.7,-2.041455949,8.113949426,3.730166187,-7.081424936,-21.49872774,24.44783715,23.93
12:28.7,-2.434903088,8.716490177,4.039018201,-5.475826972,-29.82442748,23.72010178,23.93666667
12:28.8,-2.14440662,8.663019674,4.367821895,-4.091603053,-21.51145038,16.63613232,23.94333333
12:28.8,-1.891419312,9.419587398,4.347072148,-4.435114504,-8.10178117,2.849872774,23.94333333
12:28.9,-1.365493014,9.026140259,4.126805595,-4.93129771,-9.183206107,-5.513994911,23.93666667
12:28.9,-1.237802258,8.901641772,3.760492741,-5.246819338,-29.87022901,-3.989821883,23.93666667
12:29.0,-0.656809322,8.573636145,3.762886943,0.254452926,-24.89312977,-1.091603053,23.94333333
12:29.0,-0.371101257,8.47467581,3.96160568,2.452926209,-8.353689567,-0.099236641,23.95
12:29.0,-0.673568734,8.651846733,4.12520946,5.106870229,13.44529262,-1.600508906,23.95
12:29.1,-1.001574361,8.646260262,3.93287526,0.905852417,4.287531807,-8.951653944,23.95
12:29.1,-1.431732593,8.825027319,3.810770976,-1.610687023,-10.08396947,-7.941475827,23.95
12:29.2,-1.129265116,8.86493068,4.003105176,-2.903307888,-13.35114504,-7.755725191,23.95
12:29.2,-0.806047892,8.921593453,4.260880888,-3.72264631,-18.49872774,-3.002544529,23.95
12:29.3,-0.938527051,8.866526815,4.308764921,-3.982188295,-14.3307888,-3.351145038,23.95
12:29.3,-1.448492004,8.678981018,4.278438367,-3.491094148,-15.84478372,-7.567430025,23.95
12:29.3,-1.99516805,8.697336564,4.335101139,-2.811704835,3.389312977,-23.06615776,23.95
12:29.4,-1.843535278,8.425195642,4.572925171,-3.081424936,14.07124682,-39.37150127,23.95
12:29.4,-1.598528642,8.648654464,4.413311727,-4.086513995,20.05597964,-40.84987277,23.95
12:29.5,-1.371079484,8.473079675,3.915317782,-3.223918575,16.44529262,-24.68193384,23.95
12:29.5,-1.626460994,8.432378247,3.79241543,-2.10178117,12.48600509,-8.03307888,23.95
12:29.6,-1.825977799,8.3166585,3.956817277,-0.132315522,8.615776081,-1.513994911,23.95
12:29.6,-2.019908134,8.453926062,4.418898197,-0.511450382,5.282442748,0.880407125,23.95
12:29.7,-1.877852169,8.666211943,4.327918534,1.562340967,6.93129771,4.832061069,23.95
12:29.7,-2.139618217,8.598376229,4.118026855,1.949109415,7.865139949,9.295165394,23.95666667
12:29.7,-2.162762166,8.435570516,3.935269462,1.633587786,7.890585242,9.776081425,23.96333333
12:29.8,-2.214636536,8.390080684,3.828328455,0.547073791,4.470737913,8.730279898,23.96333333
12:29.8,-7.927201697,10.79864755,2.327164014,-7.371501272,-9.368956743,-70.61832061,23.95666667
12:29.9,-10.81859924,9.647834623,3.356670728,-18.49363868,-25.22900763,-70.78625954,23.95
12:29.9,-9.149840678,10.03888756,3.43647745,-22.20356234,-3.597964377,-88.39694656,23.95
12:30.0,-3.270479468,7.723694556,4.845066093,-13.17048346,6.534351145,-8.083969466,23.95666667
12:30.0,-0.579396802,9.06604362,3.593696692,3.254452926,13.03562341,-1.486005089,23.96333333
12:30.0,-2.504334937,8.176996737,3.434083248,11.84478372,-17.32315522,22.81679389,23.97
12:30.1,-2.964021655,8.231265308,3.596888961,13.19338422,-18.60559796,24.84732824,23.97
12:30.1,-3.127625435,8.037334973,4.036623999,8.430025445,-12.6870229,17.70483461,23.97
12:30.2,-3.124433167,8.30229329,4.469176432,0.735368957,-9.330788804,7.631043257,23.96333333
12:30.2,-2.783658464,8.375715474,4.695827523,-4.442748092,-11.15267176,0.480916031,23.95666667
12:30.2,-2.434903088,8.425993709,4.698221724,-7.223918575,-8.765903308,-2.549618321,23.95
12:30.3,-2.098118722,8.640673792,4.564944499,-4.48346056,-14.90839695,-4.592875318,23.95
12:30.3,-1.800439648,8.524155977,4.499502987,-1.524173028,-19.18829517,-4.402035623,23.95
12:30.3,-1.757344019,8.373321273,4.339091475,2.050890585,-23.49363868,-3.796437659,23.95
12:30.4,-1.690306372,8.227274972,4.209006519,3.470737913,-17.44020356,-0.720101781,23.95
12:30.4,-1.816400993,8.028556234,4.172295426,2.272264631,-9.005089059,0.134860051,23.95
12:30.4,-1.675941162,8.217698165,4.121219124,0.58524173,-1.48346056,-4.625954198,23.95
12:30.5,-1.899399984,8.331821777,4.207410384,-2.473282443,10.79389313,-6.320610687,23.95
12:30.5,-1.988783512,8.538521187,4.231352401,-3,19.3307888,-8.152671756,23.95
12:30.5,-2.122858805,8.324639172,3.924096521,-2.575063613,6.575063613,-7.178117048,23.95666667
12:30.6,-1.928130404,8.240842114,3.746127531,-0.374045802,-10.35114504,-4.480916031,23.96333333
12:30.6,-1.756545951,8.126718502,3.689464758,0.287531807,-19.11450382,-3.017811705,23.97
12:30.7,-1.859496623,8.217698165,4.101267444,-0.478371501,-7.061068702,0.633587786,23.96333333
12:30.7,-2.145204687,8.277553206,4.245717611,-1.590330789,0.152671756,0.081424936,23.95666667
12:30.7,-2.559401575,8.382100012,4.327120467,-2.340966921,-2.837150127,-0.847328244,23.95666667
12:30.9,-2.677515523,8.415618835,4.342283744,-2.65394402,-9.592875318,-3.531806616,23.96333333
12:30.9,-2.347913761,8.31107203,4.303178451,-2.145038168,-12.52417303,-4.119592875,23.97666667
12:31.0,-1.940899479,8.225678837,4.241727275,-1.450381679,-9.302798982,-3.13740458,23.97666667
12:31.1,-1.708661918,8.16741993,4.304774585,-0.989821883,2.832061069,0.063613232,23.97
12:31.1,-1.727815531,8.172208333,4.405331055,-1.338422392,17.79389313,2.541984733,23.95666667
12:31.2,-1.964043429,8.133901107,4.465186096,-2.824427481,34.18829517,2.921119593,23.96333333
12:31.4,-2.355894434,8.065267326,4.03343173,-1.402035623,31.31806616,4.781170483,23.97666667
12:31.4,-2.794831405,8.068459595,3.856260807,6.521628499,17.49872774,4.592875318,23.99
12:31.5,-3.135606108,8.216900098,3.704628035,13.17302799,0.666666667,4.814249364,23.99
12:31.7,-3.252921989,8.304687492,3.7980019,18.18320611,-11.86768448,0.72264631,23.98333333
12:31.7,-3.141192578,8.568049674,3.758896606,14.53180662,-11.23918575,-0.763358779,23.97
12:31.7,-2.866657454,8.617529842,3.713406775,11.22391858,-11.0178117,-0.928753181,23.95666667
12:31.8,-2.664746448,8.785123958,3.780444421,4.353689567,-4.475826972,-0.870229008,23.95
12:31.8,-2.545834432,8.797893034,3.678291817,-2.513994911,-7.992366412,-3.748091603,23.95
12:31.8,-2.256136031,8.953516142,3.466005937,-7.852417303,-12.44529262,-7.081424936,23.95
12:31.9,-1.84592948,9.188945972,3.288036947,-10.27480916,-11.83715013,-7.776081425,23.95
12:31.9,-1.640826204,9.174580762,3.131615771,-9.234096692,-5.778625954,-7.295165394,23.95
12:32.0,-1.607307381,8.880093958,3.17790367,-6.814249364,-2.20610687,-5.923664122,23.95
12:32.0,-1.598528642,8.471483541,3.2209993,-3.870229008,-3.842239186,-4.287531807,23.96333333
12:32.1,-1.449290072,8.097190015,3.277662073,-1.012722646,-3.554707379,-0.127226463,23.97666667
12:32.2,-2.042254016,7.943961108,3.397372156,5.715012723,1.043256997,5.193384224,23.98333333
12:32.2,-2.457248971,7.814674219,3.628013582,11.1043257,3.368956743,9.195928753,23.97666667
12:32.2,-2.901772412,7.798712874,3.816357446,15.06870229,3.554707379,10.53689567,23.97
12:32.3,-2.739764766,7.695762203,3.730166187,14.72773537,3.1043257,9.554707379,23.97
12:32.3,-2.948858378,7.583234725,3.587312154,15.29007634,7.702290076,8.071246819,23.97
12:32.3,-3.253720056,7.654262708,3.560975936,14.70992366,12.66412214,5.661577608,23.97
12:32.4,-3.345497786,7.82584716,3.718195178,10.17811705,19.41984733,1.961832061,23.96333333
12:32.4,-2.863465186,8.063671191,3.998316772,0.926208651,31.77608142,0.213740458,23.95666667
12:32.4,-2.38861519,8.472281608,4.097277108,-8.193384224,49.40458015,0.478371501,23.95
12:32.6,-2.539449894,9.147446476,3.911327445,-12.16284987,65.05852417,-0.918575064,23.95666667
12:32.6,-3.465207869,9.445125549,2.907358883,-15.20610687,72.15521628,-7.666666667,23.95666667
12:32.6,-4.094084839,8.825825387,1.825977799,-13.98473282,50.58524173,-14.15012723,23.95666667
12:32.7,-3.689464758,7.716511951,1.027910579,-10.22137405,8.114503817,-12.95928753,23.95
12:32.7,-2.457248971,7.178614644,1.117294108,1.89821883,-35.4605598,-0.526717557,23.95
12:32.9,-1.373473686,8.057286654,1.826775867,10.07633588,-38.19083969,14.84223919,23.95666667
12:32.9,-1.570596289,8.651048665,1.963245361,10.47328244,-27.09923664,17.76081425,23.95666667
12:32.9,-2.023100403,8.761181942,1.906582589,7.554707379,-12.94656489,13.30534351,23.95666667
12:33.0,-2.596910734,8.021373629,1.413377047,7.183206107,-20.61577608,8.951653944,23.96333333
12:33.0,-2.231395947,7.807491614,1.511539315,12.23155216,-24.49109415,15.45547074,23.97666667
12:33.0,-2.057417293,7.955134049,1.724623263,16.09414758,-18.43256997,22.82442748,23.99
12:33.1,-2.133233679,8.269572534,1.93212074,17.62086514,0.10178117,24.88804071,23.99
12:33.1,-2.731784094,8.462704801,2.105301326,16.96437659,18.16793893,23.38931298,23.99
12:33.3,-3.386199215,8.540915389,2.197877124,15.21882952,15.23664122,21.07888041,23.98333333
12:33.4,-3.580927616,8.97985236,2.61526628,1.480916031,-4.465648855,11.75318066,23.97666667
12:33.5,-3.647167196,10.18333773,2.986367537,-9.984732824,-3.007633588,5.580152672,23.97
12:33.6,-2.236184351,10.38524873,2.909753084,-28.63613232,-39.15521628,-17.38676845,23.97666667
12:33.6,-1.284888224,10.07958899,2.295241325,-37.07124682,-42.74045802,-31.69211196,23.98333333
12:33.6,-0.89862369,8.867324882,1.523510323,-45.50381679,-41.86005089,-49.10687023,23.97666667
12:33.7,-2.047042419,8.38848455,1.059833268,-40.79389313,2.926208651,-46.94656489,23.96333333
12:33.7,-2.908955017,7.87452926,0.971247807,-27.03816794,12.41984733,-42.53689567,23.95
12:33.7,-2.995146277,7.515399011,1.1540052,-7.427480916,-4.282442748,-37.00763359,23.96333333
12:33.9,-3.096500814,7.501033801,1.48121276,11.74045802,-19.90585242,-34.47582697,23.97666667
12:33.9,-2.982377201,7.973489596,2.41734561,21.23664122,-47.65394402,-33.09923664,23.98333333
12:34.0,-2.995944344,8.108362956,2.919329891,25.56234097,-64.80152672,-33.65394402,23.97
12:34.0,-3.077347201,8.187371611,3.132413839,29.65903308,-75.74300254,-35.92620865,23.95666667
12:34.0,-3.102885352,7.936778503,2.730986027,39.69974555,-70.04071247,-37.77608142,23.95666667
12:34.2,-2.898580143,8.059680855,2.749341573,45.25954198,-70,-37.84732824,23.96333333
12:34.3,-2.802812077,8.926381856,2.964819722,41.92111959,-61.87531807,-33.09414758,23.97
12:34.4,-3.00871342,8.612741439,2.510719474,32.04834606,-47.56743003,-31.27226463,23.97
12:34.6,-3.426102576,8.800287236,1.707863851,32.956743,-34.42748092,-17.67175573,23.97666667
12:34.6,-3.607263835,8.212111694,1.343147131,37.3129771,-30.48854962,-4.801526718,23.97666667
12:34.7,-4.083709965,8.789912362,1.643220406,38.99491094,-25.69211196,8.730279898,23.98333333
12:34.9,-4.594472986,8.970275553,1.819593262,23.52671756,-16.49363868,4.916030534,23.97666667
12:35.0,-4.631982145,9.09477404,1.476424357,9.374045802,-23.40203562,-5.025445293,23.97666667
12:35.1,-3.719791313,9.414000928,1.188322091,4.913486005,-28.79389313,-6.994910941,23.97666667
12:35.3,-2.624843087,9.205705383,1.726219397,9.353689567,-43.8346056,2.684478372,23.98333333
12:35.3,-2.4516625,9.031726729,2.242568888,7.577608142,-26.29262087,12.61832061,23.99
12:35.3,-2.829946362,8.432378247,2.717418884,4.312977099,-20.81170483,12.81679389,23.99
12:35.4,-3.12922157,8.275957072,2.987165605,-0.175572519,-11.85496183,4.748091603,23.99
12:35.4,-2.766899052,8.058084721,3.484361483,-0.608142494,-19.89312977,-0.229007634,23.99
12:35.5,-2.655169641,8.164227661,3.818751648,-3.987277354,-15.95419847,-4.246819338,23.99
12:35.7,-2.61526628,8.257601526,3.376622408,5.432569975,-22.55470738,-7.208651399,23.99
12:35.7,-2.739764766,8.30229329,2.722207288,11.88549618,-32.84732824,-16.47073791,23.99
12:35.8,-2.612872078,8.259995728,2.032677209,18.85750636,-43.62340967,-24.51145038,23.99
12:36.0,-2.919329891,8.322244971,1.792458976,13.88040712,-27.36132316,-22.91603053,23.99
12:36.1,-3.395776021,8.540915389,1.747767212,11.25699746,-18.8778626,-17.37913486,23.99
12:36.2,-3.687868624,8.727663118,1.728613599,10.36386768,-14.85750636,-9.030534351,23.99666667
12:36.3,-3.713406775,8.818642782,1.897803849,9.185750636,-27.69211196,-8.631043257,23.99666667
12:36.3,-3.488351819,8.704519169,1.869871497,10.68956743,-28.2519084,-5.325699746,23.99
12:36.5,-3.487553752,8.578424548,1.834756539,10.88804071,-26.00508906,-4.389312977,23.97666667
12:36.6,-3.306392493,8.520165641,1.65359528,11.64122137,-15.29516539,-0.315521628,23.97666667
12:36.7,-3.255316191,8.719682446,1.586557633,13.72264631,-9.987277354,8.262086514,23.97666667
12:36.9,-3.086924007,8.86493068,1.320801249,11.61832061,-9.195928753,18.65394402,23.97666667
12:36.9,-2.849099976,9.046890007,1.141236125,5.979643766,-7.086513995,20.62086514,23.97
12:36.9,-2.53785376,9.213686056,1.039083521,-1.330788804,1.183206107,15.80407125,23.97
12:37.0,-2.261722502,9.133081266,1.174754948,-5.470737913,13.45292621,8.699745547,23.97666667
12:37.1,-2.441287626,8.885680428,1.323195451,-5.402035623,16.78371501,3.480916031,23.98333333
12:37.2,-2.266510905,8.663019674,1.55303881,-4.842239186,-2.65648855,-2.325699746,23.99
12:37.4,-2.501142668,8.883286226,1.650403011,-5.567430025,-6.086513995,-8.305343511,23.99666667
12:37.4,-1.929726538,9.238426139,1.761334355,-6.832061069,-23.84987277,-12.72773537,23.99666667
12:37.5,-1.635239734,9.31583866,1.749363346,-9.908396947,-19.62340967,-13.13231552,23.99666667
12:37.7,-1.320801249,9.379684037,2.080561243,-12.8524173,-20.97709924,-7.903307888,23.99666667
12:37.7,-1.684719902,9.129888997,2.418143677,-12.65139949,-10.67175573,-8.040712468,24.00333333
12:37.7,-2.071782503,8.828219588,2.628035356,-10.50381679,-7.050890585,-8.34351145,24.00333333
12:37.8,-2.015119731,8.161035392,2.431710819,-3.946564885,-11.69211196,-10.82697201,23.99666667
12:37.9,-1.991177714,7.808289681,2.105301326,1.938931298,-10.80407125,-4.122137405,23.99666667
12:38.1,-2.229799813,8.343792786,2.560199642,3.625954198,-3.819338422,2.043256997,24.00333333
12:38.2,-2.231395947,8.847373201,2.533863424,5.417302799,-4.061068702,1.737913486,24.01
12:38.2,-2.409364937,9.236830005,2.681505859,1.10178117,-0.295165394,0.788804071,24.01
12:38.4,-2.442085693,8.953516142,2.23059788,1.185750636,-3.8956743,-1.783715013,24.01
12:38.5,-2.708640145,8.955910343,2.491565861,-0.679389313,-0.020356234,-0.694656489,24.01
12:38.5,-2.544238298,8.978256226,2.508325273,0.297709924,-2.417302799,-0.987277354,24.01
12:38.6,-2.340731156,8.987034965,2.390211324,0.318066158,1.076335878,0.160305344,24.01
12:38.6,-2.328760148,8.990227234,2.277683846,-0.333333333,0.834605598,0.86259542,24.01666667
12:38.7,-2.361480904,9.001400175,2.275289644,-1.175572519,0.356234097,0.750636132,24.02333333
12:38.9,-2.185108049,8.984640763,2.557007373,-7.564885496,10.39694656,0.122137405,24.01666667
12:39.0,-2.276885779,9.142658073,2.972002327,-14.47328244,22.86513995,-3.017811705,24.01666667
12:39.1,-2.176329309,8.366936735,3.004723083,-15.02798982,37.29516539,-0.259541985,24.01666667
12:39.2,-2.858676782,8.160237325,3.097298881,0.44783715,45.88549618,14.65648855,24.01666667
12:39.3,-3.090116276,7.888096403,3.42211224,10.18575064,54.10178117,29.61068702,24.01
12:39.3,-3.913721647,8.496223625,3.715002909,9.618320611,64.61577608,26.87022901,24.01
12:39.4,-4.242525342,8.795498832,3.601677364,-4.234096692,67.40458015,11.34351145,24.02333333
12:39.5,-4.770845841,9.368511096,2.960829386,-11.40712468,63.91094148,-0.058524173,24.03
12:39.7,-4.953603235,9.333396139,2.264116703,-11.52671756,29.55216285,-11.35114504,24.03
12:39.8,-3.762088875,9.541691683,1.465251416,-1.129770992,-23.53180662,-11.68956743,24.01666667
12:39.9,-2.647188969,8.524155977,1.049458394,2.712468193,-43.65648855,-14.32569975,24.00333333
12:40.0,-1.376665955,8.292716484,1.147620662,0.422391858,-17.52417303,5.312977099,24.00333333
12:40.1,-1.40380024,7.943163041,1.480414693,-9.694656489,32.73282443,21.12977099,24.01
12:40.1,-2.253741829,11.24716133,1.882640572,0.875318066,47.22137405,57.91094148,24.01666667
12:40.2,-3.621629045,12.64138477,2.502738802,13.31043257,38.10178117,70.55979644,24.01
12:40.2,-4.639962817,12.11386233,3.454832996,11.97964377,8.681933842,59.3307888,24.01
12:40.3,-4.167507023,8.446743457,3.357468795,-3.880407125,-20.23918575,11.09669211,24.01
12:40.5,-2.5003446,7.362968172,2.27927998,-37.73282443,-18.4605598,-29.82951654,24.01
12:40.5,-1.940101412,7.303911198,1.325589653,-20.37150127,-4.715012723,-33.09923664,24.00333333
12:40.5,-1.914563261,7.671820186,1.427742257,-1,2.134860051,-13.19847328,23.99666667
12:40.7,-2.638410229,7.449159432,2.367067375,37.68193384,-22.49618321,14.13740458,23.99666667
12:40.8,-3.232970308,9.891245125,2.531469222,28.91348601,-26.60305344,16.03816794,23.99666667
12:40.9,-3.392583752,10.57917907,2.122858805,11.16284987,-31.40458015,-2.852417303,23.99666667
12:41.0,-2.983175269,10.4347289,1.458068811,-5.493638677,-34.18829517,-20.46310433,23.99
12:41.0,-1.863486959,8.048507914,1.2976573,-13.1475827,-41.6259542,-35.91603053,23.99
12:41.2,-1.312820577,7.319872542,1.249773267,-14.59541985,-33.41984733,-25.95165394,23.98333333
12:41.3,-1.189918225,7.607974809,1.651999146,-10.15776081,-9.083969466,-2.638676845,23.97666667
12:41.3,-1.856304354,9.196926644,2.110887797,-4.730279898,43.46564885,41.84478372,23.97666667
12:41.5,-2.75891838,9.040505469,2.821167623,5.170483461,97.30025445,62.21628499,23.98333333
12:41.6,-3.055799386,8.286331946,2.40856687,-5.463104326,81.32824427,53.16793893,23.99
12:41.7,-3.888183496,6.964732629,2.454056702,5.847328244,28.83715013,31.90076336,23.99
12:41.8,-3.478775012,8.097988082,2.103705192,4.402035623,-36.23155216,0.394402036,23.98333333
12:41.8,-3.979961226,9.920773612,2.384624854,15.2519084,-42.72773537,-22.24936387,23.97666667
12:41.8,-3.2209993,12.32215788,1.764526624,4.396946565,-54.78117048,-50.74554707,23.97666667
12:42.0,-3.222595435,13.91909038,1.473232088,4.506361323,-57.46819338,-53.39440204,23.98333333
12:42.1,-3.049414848,13.09149468,0.902614026,0.961832061,-90.18575064,-48.45801527,23.98333333
12:42.2,-2.340731156,10.48181487,0.622492432,-5.692111959,-94.91094148,-44.96437659,23.97666667
12:42.4,-1.562615617,8.343792786,0.214680082,-9.34605598,-72.3129771,-26.82697201,23.97
12:42.4,-1.09654436,10.35013378,0.920171505,5.575063613,-8.641221374,11.18575064,23.97
12:42.4,-1.576980827,10.9630494,1.747767212,29.09923664,39.95165394,44.23155216,23.97
12:42.6,-2.55221897,10.48181487,3.128423503,47.90839695,52.43765903,48.38167939,23.97
12:42.6,-1.98958158,7.695762203,3.09171241,32.79643766,32.60050891,24.44783715,23.97
12:42.6,-1.334368392,6.91285826,2.664746448,17.7735369,24.15776081,14.7480916,23.97
12:42.7,-0.887450749,6.853003219,1.641624272,8.114503817,29.41984733,22.60305344,23.97
12:42.7,-2.217030737,7.18260498,1.544260071,20.68447837,42.48854962,35.65903308,23.97666667
12:42.9,-3.502717029,7.773972791,1.602518978,26.85496183,17.54707379,38.68447837,23.98333333
12:43.0,-3.596888961,9.477048238,2.131637545,23.45292621,-10.83206107,12.36386768,23.98333333
12:43.1,-3.497130558,10.89202142,2.226607544,7.452926209,-25.69720102,-25.29516539,23.98333333
12:43.2,-2.082157377,10.25117344,1.644018473,-11.26208651,-40.46819338,-59.52671756,23.97
12:43.2,-1.248975199,8.32543724,0.768538733,-20.98727735,-46.8346056,-63.27226463,23.95666667
12:43.2,-0.309650081,6.395710701,0.15801731,-17.67175573,-49.92111959,-50.4173028,23.93666667
12:43.3,-0.371899325,6.36458608,0.237824032,-9.091603053,-30.70992366,-31.75318066,23.93
12:43.3,-0.695116549,6.544949272,0.248996973,-3.977099237,-18.51145038,-14.33842239,23.93666667
12:43.3,-0.806845959,6.894502714,0.266554451,0.801526718,-8.992366412,2.753180662,23.94333333
12:43.4,-0.992795622,7.505024137,0.425369828,8.613231552,-1.178117048,17.78371501,23.95
12:43.5,-1.103726965,8.312668164,0.832384111,19.55725191,6.312977099,29.5826972,23.95666667
12:43.6,-1.582567297,9.761160168,1.841141077,27.32061069,32.51145038,50.59541985,23.96333333
12:43.8,-1.901794185,9.468269499,2.32237561,10.38422392,14.73282443,31.44783715,23.97
12:43.8,-2.023100403,8.461906734,2.067792167,-2.498727735,40.73282443,27.39185751,23.95666667
12:43.8,-2.102109058,6.891310445,1.472434021,-8.977099237,40.20356234,11.98727735,23.94333333
12:43.9,-2.444479895,7.015808931,1.406194442,6.676844784,68.71755725,33.20101781,23.93666667
12:43.9,-2.833936698,7.738059766,1.90339032,15.01526718,42.80661578,36.01272265,23.94333333
12:43.9,-2.90815695,8.631895052,2.40856687,18.55725191,18.07379135,32.13486005,23.95
12:44.0,-2.784456531,9.982224788,2.837128967,19.02544529,8.524173028,21.96946565,23.95
12:44.0,-2.598506868,12.23197628,3.204239889,14.55979644,13.37659033,10.56234097,23.95
12:44.0,-2.665544515,15.1361429,3.007915352,5.979643766,28.10687023,4.025445293,23.95
12:44.1,-2.970406193,15.21674768,2.845109639,-3.282442748,44.5826972,-4.083969466,23.95666667
12:44.2,-3.541822323,13.13538837,2.682303927,-10.07633588,48.21119593,-20.03816794,23.96333333
12:44.3,-2.554613171,9.74918916,2.227405611,-19.38422392,4.384223919,-35.29770992,23.97
12:44.4,-1.622470658,8.211313627,1.470039819,-28.6437659,-9.190839695,-34.5216285,23.95666667
12:44.4,-0.532310836,7.534552625,0.589771676,-33.69211196,-14.36132316,-22.38676845,23.94333333
12:44.4,-0.633665373,6.983886243,0.363120585,-28.67684478,21.73791349,-7.704834606,23.93
12:44.5,-0.497993945,6.756437085,0.438138904,-17.34351145,23.38931298,4.264631043,23.93666667
12:44.5,-0.436542769,7.160259098,0.750183187,-5.335877863,28.94656489,20.34860051,23.94333333
12:44.5,-0.581791003,8.552886397,1.050256462,3.984732824,38.99745547,37.20101781,23.95
12:44.6,-0.815624699,10.74038865,1.301647636,10.21119593,50.68447837,54.5216285,23.94333333
12:44.6,-1.110111503,13.66131467,1.614489986,15.70229008,63.2086514,74.77608142,23.93666667
12:44.6,-1.637633936,15.15130617,1.923342,20.13231552,84.65648855,89.3129771,23.93
12:44.7,-2.683101994,13.80975518,2.605689473,24.65139949,110.2417303,80.7735369,23.94333333
12:44.8,-3.418121903,10.81381083,3.276065938,22.67175573,114.1552163,46.3562341,23.95666667
12:44.9,-2.768495186,7.968701192,2.968011991,1.053435115,96.82697201,13.95928753,23.97
12:45.0,-2.564189978,7.591215397,2.674323254,-9.501272265,57.27735369,3.468193384,23.96333333
12:45.0,-2.450066366,7.628724556,2.269703174,-14.95419847,30.27226463,10.04580153,23.95666667
12:45.0,-3.359862996,7.959922453,2.829946362,1.592875318,13.95165394,12.57506361,23.95
12:45.1,-3.223393502,7.949547579,2.993550142,8.259541985,12.88804071,7.737913486,23.95
12:45.1,-3.244941317,8.610347237,2.99434821,11.81424936,11.36641221,3.066157761,23.95
12:45.1,-3.24414325,10.1961068,2.705447876,9.811704835,5.888040712,1.320610687,23.95
12:45.2,-3.165932662,12.22399561,2.163560234,3.198473282,4.839694656,0.860050891,23.95
12:45.2,-2.975992664,12.82972863,1.625662927,-3.053435115,14.99491094,-3.460559796,23.95
12:45.4,-2.96561779,11.63103167,1.30324377,-3.302798982,29.07888041,-15.13486005,23.95666667
12:45.5,-2.567382247,10.43313277,1.135649654,-3.798982188,6.493638677,-25.35368957,23.96333333
12:45.5,-2.148396956,9.472259835,1.020727974,-8.974554707,-6.676844784,-27.90839695,23.96333333
12:45.6,-1.474030155,9.478644373,0.925757975,-19.07633588,-20.74300254,-21.84732824,23.95
12:45.6,-1.209869906,8.794700765,0.778913607,-27.78371501,-0.511450382,-12.3740458,23.93666667
12:45.6,-1.026314445,8.599174296,0.633665373,-30.18320611,6.676844784,-2.62086514,23.93
12:45.7,-1.126870915,8.599972363,0.446917643,-30.2697201,15.52417303,11.84987277,23.93666667
12:45.7,-1.408588643,8.842584798,0.34157277,-28.40458015,21.93638677,26.70737913,23.94333333
12:45.7,-1.72542133,9.442731348,0.296881006,-24.09414758,25.45547074,41.09923664,23.95
12:45.8,-1.993571916,9.896033529,0.308053947,-16.24936387,28.2264631,50.38676845,23.95
12:45.8,-2.193088721,9.780313782,0.526724365,-6.142493639,34.21119593,52.49363868,23.95
12:45.9,-2.384624854,9.382078239,0.950498059,3.880407125,39.30534351,48.90839695,23.95666667
12:46.0,-2.311202669,9.097168241,1.813208724,3.279898219,29.23664122,35.07124682,23.97
12:46.1,-2.044648218,9.173782694,2.398191996,-2.554707379,20.47328244,22.75572519,23.98333333
12:46.1,-1.746171077,9.124302527,2.742957035,-11.27735369,8.592875318,10.53435115,23.98333333
12:46.3,-1.546654272,8.845777067,2.576959054,-12.20101781,10.60559796,8.145038168,23.97666667
12:46.4,-1.717440658,8.826623454,2.486777458,-11.09923664,11.58015267,7.073791349,23.97
12:46.4,-1.883438639,8.829815723,2.464431576,-7.872773537,9.422391858,7.170483461,23.97
12:46.6,-2.13004141,9.00858278,2.517104012,-5.201017812,5.867684478,6.58524173,23.97
12:46.6,-1.919351664,9.026140259,2.517902079,-2.760814249,-1.106870229,3.409669211,23.97
12:46.6,-1.68791217,9.209695719,2.505133004,-2.68956743,-0.590330789,1.03307888,23.96333333
12:46.7,-1.38943503,9.401231852,2.504334937,-5.157760814,1.010178117,-1.954198473,23.95666667
12:46.7,-1.339156795,9.67736311,2.465229643,-9.804071247,2.676844784,-2.389312977,23.95
12:46.8,-1.198696965,10.0013784,2.360682837,-14.43256997,6.666666667,-2.93129771,23.95666667
12:46.9,-0.7206547,9.769938908,2.166752502,-23.46310433,23.99745547,0.65394402,23.95666667
12:47.0,-0.257775712,9.532912944,1.988783512,-30.01017812,45.72519084,7.844783715,23.96333333
12:47.1,-0.205901343,9.002198242,1.732603935,-32.13994911,70.3740458,27.1475827,23.96333333
12:47.3,-1.493183769,8.97985236,1.390233097,-29.12722646,100.0305344,36.70483461,23.97
12:47.4,-2.705447876,8.603962699,1.157197469,-24.69720102,117.2900763,39.93129771,23.97
12:47.4,-3.480371147,9.498596053,1.009555033,-22.73791349,117.5470738,35.96437659,23.97666667
12:47.6,-3.296017619,10.17695319,0.926556042,-17.64885496,99.21628499,37.67684478,23.98333333
12:47.7,-2.142012419,10.15859764,0.349553442,-12.82951654,67.72010178,40.4351145,23.98333333
12:47.7,-1.893015446,9.865706974,0.216276217,-13.10941476,80.42748092,40.9389313,23.97666667
12:47.8,-1.881044438,9.632671346,0.019153613,-16.68956743,91.6437659,38.34351145,23.96333333
12:47.8,-2.725399556,10.26633672,0.286506132,-19.65903308,120.7455471,35.39949109,23.95666667
12:47.8,-2.863465186,9.666988236,0.169988318,-18.11704835,112.8167939,27.3307888,23.95
12:48.0,-2.775677791,9.280723702,0.423773694,-17.65903308,99.65903308,17.17557252,23.96333333
12:48.0,-2.510719474,8.90802631,1.063025537,-15.12977099,77.01272265,14.78880407,23.97
12:48.1,-2.20186746,9.260772021,1.569000155,-13.52671756,60.03816794,14.42748092,23.97666667
12:48.2,-2.015119731,9.145052275,2.171540906,-11.78880407,37.02035623,12.63104326,23.97666667
12:48.3,-2.000754521,8.972669755,2.362278971,-14.52417303,27.76335878,2.786259542,23.98333333
12:48.5,-2.067792167,8.880093958,2.695871069,-17.59796438,13.97201018,-4.613231552,23.98333333
12:48.6,-1.963245361,8.579222616,2.6439967,-11.79389313,8.468193384,-0.773536896,23.98333333
12:48.7,-2.31678914,8.62391438,2.774879724,-4.180661578,8.987277354,4.048346056,23.98333333
12:48.8,-2.825956026,8.299101021,2.948060311,3.865139949,4.005089059,2.564885496,23.97666667
12:48.8,-3.250527787,8.953516142,3.200249552,4.773536896,4.628498728,-3.287531807,23.96333333
12:48.8,-3.460419466,9.774727311,3.19226888,2.279898219,0.625954198,-8.417302799,23.95
12:48.9,-3.397372156,10.92953058,2.872243925,0.480916031,7.025445293,-9.267175573,23.95666667
12:49.0,-3.371035938,11.76510696,2.593718465,1.41221374,13.3562341,-10.65139949,23.96333333
12:49.1,-3.047818713,10.93511705,2.047840487,3.603053435,-12.92875318,-15.61832061,23.97
12:49.2,-2.421335946,9.879274117,1.527500659,-1.292620865,-30.97455471,-18.89058524,23.96333333
12:49.2,-1.900198051,8.587203288,0.97044974,-8.597964377,-46.37659033,-21.83206107,23.95666667
12:49.2,-1.628057129,8.252015055,0.743000582,-14.95419847,-27.91094148,-22.61068702,23.95
12:49.4,-1.620076457,7.713319682,0.718260498,-13.68193384,-18.48091603,-25.11959288,23.95666667
12:49.4,-1.371877551,7.722896488,0.877075875,-9.628498728,-1.175572519,-10.43765903,23.95666667
12:49.4,-1.138841923,8.34538892,1.193908561,-5.384223919,17.28244275,10.74300254,23.95666667
12:49.5,-0.959276799,9.710083866,1.517125785,-2.531806616,37.01526718,38.69465649,23.95
12:49.5,-1.075794613,11.89199965,1.568202087,-1.221374046,45.41984733,60.40203562,23.95
12:49.6,-1.439713265,14.51444853,1.632047465,3.480916031,54.3129771,87.3740458,23.95666667
12:49.7,-2.483585189,12.97497686,1.748565279,0.659033079,10.46819338,64.23409669,23.95666667
12:49.7,-2.954444849,10.18253966,1.62486486,-7.150127226,-39.62340967,24.96183206,23.95666667
12:49.8,-2.673525187,6.978299772,1.251369401,-20.60814249,-79.5826972,-28.16030534,23.95666667
12:49.9,-2.065397965,7.015010864,0.57141613,-17.2086514,-4.371501272,-26.38931298,23.95666667
12:49.9,-2.509921407,7.102000191,0.577800667,0.664122137,55.10178117,-15.10687023,23.95666667
12:49.9,-3.543418457,7.145095821,0.877075875,22.41984733,70.20610687,2.178117048,23.95
12:50.0,-3.940855933,7.599994137,1.555433012,33.93129771,-1.539440204,8.959287532,23.95
12:50.0,-3.386199215,7.963912789,2.010331327,34.05597964,-57.61577608,10.37659033,23.95
12:50.0,-2.551420903,8.212909762,2.403778467,32.08651399,-79.10941476,9.053435115,23.95666667
12:50.1,-2.074974772,9.2783295,2.630429557,29.45038168,-73.21374046,8.531806616,23.96333333
12:50.1,-2.205857796,11.86247116,2.657563843,25.36386768,-57.04071247,13.07124682,23.97
12:50.2,-2.806004346,14.9485971,2.555411239,19.11195929,-38.16284987,17.04834606,23.97
12:50.3,-3.167528796,14.16489509,2.005542924,6.307888041,-73.73536896,-6.564885496,23.96333333
12:50.3,-3.009511487,11.69886738,1.379858223,-5.012722646,-117.2417303,-33.46819338,23.95666667
12:50.3,-2.149195024,8.44594539,0.751779321,-15.59796438,-161.5216285,-58.27989822,23.95
12:50.4,-1.304839905,8.204929089,0.680751339,-20.52671756,-143.56743,-54.65648855,23.95
12:50.4,-0.857124194,8.222486568,0.773327136,-27.16284987,-113.4732824,-47.35368957,23.95
12:50.4,-0.772529069,8.238447913,0.731029574,-37.5826972,-79.8778626,-40.03307888,23.95
12:50.5,-0.883460413,8.132304972,0.430158232,-46.26717557,-47.85496183,-34.67430025,23.95
12:50.5,-0.932142513,7.953537915,0.007182605,-49.70483461,-15.70737913,-32.93129771,23.95
12:50.5,-1.069410075,7.733271362,-0.339976636,-42.26463104,11.40712468,-30.55216285,23.95
12:50.6,-1.25456167,7.742050102,-0.312044283,-26.06615776,26.61068702,-25.69720102,23.95
12:50.6,-1.46126108,8.133901107,0.031922689,-6.440203562,30.53435115,-18.00508906,23.94333333
12:50.6,-1.454078475,9.596758321,0.625684701,9.707379135,26.70229008,-6.811704835,23.93666667
12:50.7,-1.217052511,11.60309931,1.233013855,18.69974555,23.2264631,9.865139949,23.93
12:50.7,-0.901815959,13.26228106,1.720632926,21.40712468,29.68447837,32.32824427,23.93666667
12:50.7,-0.881066211,13.13937871,2.184309981,23.40712468,49.94402036,52.48091603,23.94333333
12:50.8,-1.336762594,10.97980881,2.651977372,29.22900763,76.29007634,58.54198473,23.95
12:50.9,-2.181117712,8.404445894,3.232172241,34.82697201,84.16030534,47.72773537,23.95666667
12:51.0,-1.525904525,7.853779513,2.647188969,19.06361323,60.86005089,37.03053435,23.96333333
12:51.1,-2.385422921,7.997431612,2.270501241,15.8524173,37.5394402,33.99236641,23.96333333
12:51.1,-2.679111658,8.820238916,1.795651245,9.832061069,8.529262087,36.91348601,23.95666667
12:51.1,-4.037422066,8.329427576,2.41734561,20.39949109,-4.506361323,32.00508906,23.95
12:51.2,-3.27846014,8.677384884,2.712630481,12.53689567,-18.0610687,20.83969466,23.95
12:51.2,-2.675919389,9.232839669,2.927310563,6.8956743,-3.982188295,8.755725191,23.95666667
12:51.3,-2.450864433,10.4786226,2.976790731,2.300254453,22.29262087,-1.750636132,23.96333333
12:51.4,-2.694274935,10.50336268,2.727793758,-5.816793893,34.31552163,-19.27735369,23.97
12:51.4,-2.729389893,10.19530874,2.389413257,-14.39185751,14.75826972,-33.66157761,23.95666667
12:51.4,-2.355894434,9.105148914,1.888227043,-21.66412214,-20.69465649,-44.22391858,23.94333333
12:51.6,-1.490789567,8.947929671,1.622470658,-24.34096692,-43.19592875,-44.23918575,23.94333333
12:51.7,-0.905008228,8.129910771,1.187524023,-24.28753181,-40.11195929,-32.52671756,23.95666667
12:51.7,-0.746990918,8.139487577,1.126870915,-15.14249364,-4.208651399,-2.208651399,23.96333333
12:51.8,-0.94730579,8.80746984,1.171562679,-4.404580153,31.40458015,30.44020356,23.96333333
12:51.8,-1.221042847,10.60471722,1.399011837,4.020356234,63.65394402,53.07888041,23.96333333
12:51.8,-1.468443685,12.5456167,1.711854187,5.903307888,69.12722646,62.35368957,23.97
12:51.9,-1.709459985,14.4641703,1.84592948,5.783715013,75.98982188,74.09669211,23.96333333
12:51.9,-2.315991073,14.26146122,2.107695528,7.636132316,92.02035623,76.72264631,23.95666667
12:51.9,-3.07176073,11.7834625,2.517104012,10.61832061,108.1068702,55.54707379,23.95
12:52.1,-3.538630054,9.07163009,3.22977804,10.97964377,92.96183206,20.94910941,23.95666667
12:52.2,-2.593718465,7.395688928,2.540247961,-5.27480916,72.13740458,-4.007633588,23.96333333
12:52.3,-2.108493595,7.710127413,2.318385274,-6.951653944,47.44783715,-1.885496183,23.97
12:52.5,-1.749363346,9.913591007,2.217828805,-10.63358779,45.21882952,7.592875318,23.97
12:52.5,-2.192290653,10.59035201,2.591324264,-4.511450382,35.67938931,3.610687023,23.96333333
12:52.7,-1.916957463,10.44031537,1.951274353,-14.50127226,15.21628499,-7.442748092,23.96333333
12:52.8,-0.77811554,8.213707829,0.743000582,-14.15267176,11.75572519,-8.821882952,23.96333333
12:52.8,-0.764548397,8.280745475,0.975238143,-6.491094148,19.86513995,4.994910941,23.96333333
12:53.0,-0.950498059,8.88807463,1.525904525,-1.839694656,34.5216285,19.18575064,23.96333333
12:53.0,-2.175531242,10.96863587,2.105301326,-15.42493639,54.95419847,29.89821883,23.95666667
12:53.0,-2.67831359,11.8712499,1.723027128,-30.05852417,69.34860051,32.65903308,23.95666667
12:53.1,-3.376622408,11.76909729,1.477222424,-37.55725191,83.33842239,25.35368957,23.95
12:53.1,-3.819549715,9.574412439,1.320003182,-26.78625954,59.52926209,4.860050891,23.95
12:53.1,-3.91851005,8.13868951,1.516327718,-13.98727735,15,-17.4351145,23.95
12:53.3,-3.137202242,7.536148759,1.39821377,-7.040712468,-27.70483461,-33.63358779,23.95666667
12:53.4,-2.420537878,7.333439685,1.367089148,1.007633588,-38.40966921,-30.81679389,23.96333333
12:53.4,-1.951274353,7.46990918,1.724623263,9.837150127,-45.81933842,-17.02290076,23.96333333
12:53.5,-2.055023092,7.752424976,2.240972754,18.32569975,-47.74045802,-0.941475827,23.95666667
12:53.5,-2.197877124,8.742028328,2.659958044,18.33587786,-62.40458015,5.264631043,23.95
12:53.5,-2.253741829,10.39482554,2.593718465,12.9821883,-58.58524173,7.229007634,23.95
12:53.6,-2.256934098,13.01168796,2.332750484,7.216284987,-45.44274809,10.75063613,23.95
12:53.6,-2.564189978,15.33725583,2.290452922,4.791348601,-22.65394402,13.66157761,23.95
12:53.6,-3.074154932,14.78259912,2.267308972,4.437659033,0.837150127,5.854961832,23.95
12:53.7,-3.761290808,11.97499864,2.531469222,2.816793893,1.422391858,-14.55470738,23.95
12:53.7,-3.991932235,9.06604362,2.463633508,-1.788804071,-35.55216285,-38.97709924,23.95
12:53.7,-3.511495768,8.1243243,2.276885779,-8.954198473,-89.14503817,-54.17302799,23.94333333
12:53.8,-2.4029804,8.543309591,1.750959481,-16.79643766,-119.4707379,-58.81933842,23.93666667
12:53.8,-1.149216797,8.798691101,1.384646627,-27.64631043,-107.0203562,-55.06361323,23.93
12:53.8,-0.275333191,9.039707402,1.028708647,-38.85496183,-64.78880407,-47.35368957,23.93666667
12:53.9,-0.033518823,8.932766394,0.767740666,-47.77862595,-17.55216285,-36.05089059,23.94333333
12:53.9,-0.383870333,8.429984045,0.416591089,-51.04580153,20.92111959,-27.38422392,23.95
12:53.9,-1.011151168,7.751626908,0.148440503,-47.39694656,40.74554707,-21.65394402,23.94333333
12:54.0,-1.553836877,7.032568343,-0.045489832,-37.03053435,40.72773537,-18.15012723,23.93666667
12:54.0,-1.795651245,6.576073893,-0.059855042,-21.79389313,24.74554707,-12.60559796,23.93
12:54.0,-1.627259062,6.655082548,0.10614294,-6.124681934,5.608142494,-1.880407125,23.94333333
12:54.1,-1.328781921,7.260815568,0.434946635,7.282442748,-3.847328244,12.11959288,23.95666667
12:54.1,-0.935334782,8.835402193,0.745394784,17.4173028,-0.002544529,29.96437659,23.97
12:54.2,-0.764548397,11.71323259,1.075794613,26.64122137,10.35877863,56.00254453,23.97
12:54.3,-1.735796204,11.62225293,2.574564852,32.3307888,14.18320611,50.39440204,23.95666667
12:54.3,-2.813186951,10.76034033,3.177105603,24.48091603,-18.05852417,35.94656489,23.95
12:54.3,-3.545812659,8.220890434,3.331930644,8.132315522,-49.91348601,-3.768447837,23.94333333
12:54.4,-2.151589225,8.418811104,1.927332336,-9.575063613,-56.52926209,-17.29516539,23.95
12:54.4,-0.732625708,8.576828414,1.86588116,-27.2697201,-12.18066158,-20.44020356,23.95
12:54.4,-0.414196887,7.929595898,1.445299736,-29.76335878,38.0178117,-9.295165394,23.95
12:54.5,-1.22583125,7.24884456,1.308032174,-22.2086514,66.75826972,9.31043257,23.95
12:54.5,-2.532267289,6.820282463,0.86111453,2.804071247,65.36132316,20.47582697,23.95
12:54.5,-3.294421484,7.336631954,1.173956881,19.77608142,36.51145038,28.91857506,23.95
12:54.6,-3.63439812,7.884904134,1.467645618,27.40203562,-3.796437659,28.16030534,23.95
12:54.6,-3.39896829,8.145074048,1.717440658,27.14249364,-37.4351145,21.50890585,23.94333333
12:54.6,-2.802812077,8.633491187,2.094926453,23.62849873,-52.27226463,10.24173028,23.93666667
12:54.7,-2.496354264,9.694920589,2.499546533,16.85750636,-51.34605598,-1.949109415,23.93
12:54.7,-2.300029728,11.20326764,2.80201401,4.122137405,-40.7735369,-13.00763359,23.93666667
12:54.7,-2.090936117,12.39238779,2.777273926,-13.20356234,-16.94910941,-25.49618321,23.94333333
12:54.8,-1.904986454,13.5024993,2.545834432,-29.20356234,15.97964377,-36.20356234,23.95
12:54.8,-1.956062756,13.13618644,2.146002755,-38.34096692,48.92875318,-46.56997455,23.95
12:54.8,-2.331952417,11.53446553,1.778093766,-42.06361323,66.36895674,-55.67938931,23.95
12:54.9,-2.684698128,9.593566052,1.541067802,-41.42239186,56.24173028,-66.09160305,23.95
12:54.9,-2.772485522,8.877699756,1.478818559,-38.99491094,19.29516539,-68.89312977,23.95
12:54.9,-2.516305945,9.900821932,1.71664259,-37.46819338,-24.56743003,-62.88295165,23.95
12:55.0,-1.770113094,11.03966385,1.514731584,-40.25699746,-46.88040712,-51.82951654,23.95
12:55.0,-0.967257471,11.43470713,1.268128813,-46.49109415,-32.59287532,-43.92366412,23.95
12:55.0,-0.592165877,10.91516537,1.023122176,-50.98727735,-1.050890585,-38.16793893,23.95
12:55.1,-0.841960917,9.97903252,1.075794613,-52.75318066,23.62086514,-34.60814249,23.95
12:55.1,-1.118092175,9.277531433,1.048660327,-53.93384224,33.18575064,-32.82697201,23.95
12:55.1,-0.984016882,8.876901689,0.723846969,-54.95419847,33.87277354,-29.11195929,23.95
12:55.2,-0.700703019,8.401253625,0.517147559,-54.3740458,35.44020356,-18.29770992,23.95
12:55.2,-0.501186214,8.23046724,0.459686719,-50.49618321,40.05089059,3.119592875,23.95
12:55.2,-0.420581425,8.211313627,0.531512769,-47.48346056,50.16030534,29.27989822,23.95
12:55.3,-0.363120585,8.43716665,0.565829659,-48.63613232,63.93384224,57.60559796,23.95
12:55.3,-0.390254871,8.995813704,0.345563106,-52.72264631,78.3307888,86.47073791,23.95
12:55.4,-0.583387138,10.25117344,-0.075018319,-56.24173028,93.95419847,117.7124682,23.95
12:55.4,-0.971247807,12.09630485,-0.655213188,-54.4783715,114.6284987,151.3638677,23.95
12:55.4,-1.843535278,12.86803586,-1.040679655,-44.48854962,139.7251908,175.7277354,23.95
12:55.5,-2.961627454,11.74595334,-1.067015873,-26.81679389,159.6208651,180.3333333,23.95
12:55.5,-3.908135177,10.10273294,-0.518743693,-3.300254453,156.7989822,166.0407125,23.94333333
12:55.5,-4.471570634,9.526528406,0.312044283,15.63867684,135.5012723,141.8193384,23.93666667
12:55.6,-4.491522314,10.56401579,1.098938562,20.3307888,103.8600509,123.1399491,23.93
12:55.6,-4.564944499,11.23279612,1.454876542,8.053435115,81.10941476,102.3002545,23.93666667
12:55.6,-3.971980554,11.18491209,1.454078475,-6.231552163,82.40203562,81.09414758,23.94333333
12:55.7,-3.545014591,10.20727974,1.454078475,-8.727735369,105.6284987,57.04834606,23.95
12:55.7,-3.217008964,9.010178914,1.691902507,0.139949109,133.7150127,37.07379135,23.94333333
12:55.7,-3.367843669,8.21610203,2.157973763,7.407124682,139.4427481,21.82442748,23.93666667
12:55.8,-3.238556779,8.036536906,2.5003446,6.402035623,118.8295165,12.28753181,23.93
12:55.8,-3.08213,,,,,,
