Time,Acc-X,Acc-Y,Acc-Z,Gyro-X,Gyro-Y,Gyro-Z,Ambient Temp
33:59.3,-5.815515833,0.866701001,7.194575989,-0.419847328,-2.320610687,0.671755725,24.91
33:59.4,-5.820304236,1.060631335,7.180210779,-1.145038168,-2.702290076,0.198473282,24.89
33:59.5,-5.669469531,0.859518396,7.304709265,-0.595419847,-3.122137405,0.603053435,24.91
33:59.7,-5.750872388,0.847547388,7.309497668,-0.679389313,-2.374045802,0.41221374,24.89
33:59.8,-5.765237598,0.907402429,7.264007837,0.41221374,-1.404580153,0.106870229,24.89
33:59.9,-5.753266589,0.998382092,7.256825232,0.740458015,-0.664122137,0.946564885,24.89
34:00.1,-5.815515833,0.931344446,7.359775903,1.381679389,-1.641221374,-0.93129771,24.89
34:00.2,-5.808333228,1.015141504,7.266402039,0.732824427,-2.259541985,-0.923664122,24.91
34:00.3,-5.56651886,0.986411084,7.273584644,1.305343511,-3.648854962,-0.839694656,24.91
34:00.5,-5.568913062,0.821211169,7.352593298,1.122137405,-2.786259542,-0.541984733,24.91
34:00.6,-5.475539197,0.964863269,7.208941199,-1.374045802,-2.488549618,0.557251908,24.91
34:00.7,-5.714959363,0.926556042,7.335833887,-2.221374046,-1.488549618,1.145038168,24.91
34:00.9,-5.710170959,0.840364783,7.237671619,-0.167938931,-1.93129771,0.114503817,24.89
34:01.0,-5.583278271,0.972045874,7.31189187,0.702290076,-2.755725191,-0.702290076,24.89
34:01.1,-5.578489868,1.08217915,7.304709265,-0.351145038,-3.122137405,-1.305343511,24.93
34:01.3,-5.655104321,0.943315454,7.417236743,-1.183206107,-2.870229008,-0.900763359,24.91
34:01.4,-5.592855078,0.890643018,7.378929517,-0.885496183,-2.641221374,-0.396946565,24.91
34:01.5,-5.602431885,0.883460413,7.285555652,0.183206107,-1.801526718,-0.961832061,24.91
34:01.8,-5.597643481,0.936132849,7.3549875,1.374045802,-4.816793893,-2.679389313,24.87
34:01.9,-5.377376929,0.962469067,7.501033801,-1.900763359,-2.839694656,-1.251908397,24.89
34:02.0,-5.549759448,0.902614026,7.453149768,-0.79389313,-2.564885496,-1.419847328,24.87
34:02.1,-5.485116003,1.024718311,7.314286072,-0.58778626,1.65648855,2.13740458,24.89
34:02.3,-5.533000037,0.972045874,7.378929517,-0.732824427,-12.35877863,0.419847328,24.91
34:02.4,-5.762843396,1.120486377,7.608772876,-0.824427481,5.832061069,1.015267176,24.93
34:02.5,-4.94642063,0.790086548,7.503428003,-0.832061069,-2.198473282,2.778625954,24.91
34:02.7,-5.616797095,0.979228479,7.572859851,-2.633587786,-16.70992366,-0.083969466,24.89
34:02.8,-5.331887097,0.658405457,7.678204724,0.763358779,-12.30534351,4.27480916,24.89
34:02.9,-5.401318945,0.847547388,7.876923462,0.244274809,-1.435114504,8.152671756,24.91
34:03.1,-5.262455249,0.905008228,7.967903125,-1.526717557,-1.938931298,-6.900763359,24.87
34:03.2,-4.865017773,0.928950244,7.740453967,-1.381679389,-13.96946565,-4.083969466,24.87
34:03.3,-4.639962817,0.955286462,8.101978418,-3.786259542,13.46564885,-5.244274809,24.89
34:03.5,-5.013458276,1.09654436,7.539341028,-4.27480916,7.389312977,-0.122137405,24.89
34:03.6,-5.319916089,0.256179578,7.864952454,-0.374045802,-16.54198473,-4.022900763,24.89
34:03.7,-4.637568616,0.864306799,7.524975818,-1.038167939,3.86259542,16.3740458,24.89
34:03.9,-4.83149895,1.19710083,7.884106067,-1.030534351,2.190839695,1.839694656,24.89
34:04.0,-3.933673328,1.05344873,8.413224634,0.312977099,3.27480916,13.9389313,24.89
34:04.1,-5.504269617,1.505952844,8.097190015,6.175572519,5.297709924,3.946564885,24.89
34:04.3,-5.236119031,1.35511814,8.025363965,14,6.34351145,0.908396947,24.91
34:04.4,-5.473144995,1.065419739,7.927201697,2.480916031,17.88549618,-18.73282443,24.89
34:04.5,-4.797980127,1.319205115,7.814674219,-3.900763359,-29.26717557,-9.229007634,24.89
34:04.7,-5.322310291,1.256955872,8.248024719,-3.816793893,-22.11450382,-14.44274809,24.89
34:04.8,-4.881777185,0.993593689,8.216900098,-2.58778626,6.450381679,-2.41221374,24.87
34:04.9,-4.558559961,1.024718311,8.236053711,-2.175572519,10.8778626,-3.549618321,24.87
34:05.1,-4.809951135,0.974440076,8.09000741,0.20610687,-9.030534351,2.763358779,24.89
34:05.3,-4.515464331,1.031900916,8.070853796,-1.732824427,-14.45038168,2.954198473,24.87
34:05.4,-4.587290381,1.012747302,7.908048083,-1.778625954,12.13740458,0.923664122,24.85
34:05.6,-4.510675928,0.964863269,8.216900098,-2.648854962,-19.51145038,3.099236641,24.87
34:05.7,-4.879382983,0.912190833,8.116343628,-1.305343511,0.534351145,1.526717557,24.89
34:05.8,-4.450820886,0.921767639,7.855375647,-0.122137405,-2.954198473,-0.778625954,24.87
34:06.0,-4.671087439,0.897825623,8.279149341,-0.221374046,8.564885496,-0.022900763,24.85
34:06.1,-4.649539624,1.130063184,8.123526233,-5.824427481,17.93129771,2.030534351,24.89
34:06.2,-4.699817859,0.933738647,7.984662537,-0.938931298,-37.11450382,7.679389313,24.89
34:06.4,-4.031835596,0.974440076,8.207323291,-0.65648855,5.671755725,-3.58778626,24.91
34:06.5,-3.569754675,1.192312427,8.257601526,0.832061069,3.519083969,-0.847328244,24.87
34:06.6,-4.855440967,1.005564697,8.810662109,0.816793893,-12.41984733,-5.503816794,24.89
34:06.8,-3.895366101,1.31202251,8.063671191,3.847328244,-9.564885496,15.90076336,24.89
34:06.9,-3.79241543,1.206677637,8.571241943,3.198473282,-10.87022901,9.984732824,24.87
34:07.0,-2.861070984,1.996764185,8.975862024,-3.58778626,12.51908397,-0.297709924,24.89
34:07.2,-4.577713574,1.335964526,7.773972791,-3.038167939,5.099236641,13.04580153,24.87
34:07.3,-6.083666418,0.682347473,8.786720093,-2.022900763,-17.32061069,0.41221374,24.87
34:07.4,-4.089296436,-0.198718738,8.633491187,5.480916031,-16.51908397,-34.19083969,24.89
34:07.6,-4.625597607,1.766920825,8.564059338,-1.770992366,-2.511450382,11.13740458,24.87
34:07.7,-1.77410343,1.833958472,8.492233289,-9.664122137,-17.88549618,22.61068702,24.87
34:07.8,-1.88902511,0.835576379,8.645462195,-1.267175573,-4.824427481,4.374045802,24.89
34:08.0,-3.54820686,1.956062756,9.02853446,3.458015267,-13.81679389,-7.267175573,24.87
34:08.1,-2.334346619,0.531512769,8.848969336,-10.38931298,47.25954198,-3.396946565,24.89
34:08.2,-4.127603662,2.626439221,7.42681355,-1.007633588,-1.450381679,5.396946565,24.87
34:08.4,-3.991134167,1.857900488,8.463502869,-3.259541985,16.9389313,-1.366412214,24.89
34:08.6,-2.705447876,0.430956299,7.144297754,8.519083969,26.16793893,-13.78625954,24.87
34:08.7,-3.502717029,2.212242334,9.349357483,-0.06870229,-11.6259542,5.961832061,24.87
34:08.8,-4.754884497,1.556231079,8.394071021,-10.14503817,-11.87022901,23.65648855,24.89
34:09.0,-6.380547424,1.812410657,8.427589844,-3.259541985,-18.46564885,1.641221374,24.85
34:09.1,-2.396595862,1.213860242,8.767566479,12.78625954,4.679389313,-41.97709924,24.85
34:09.2,-5.058948108,1.994369983,9.01416925,-11.15267176,1.694656489,-29.35877863,24.87
34:09.4,-3.435679382,1.482010828,8.073247998,-0.702290076,0.832061069,-12.95419847,24.85
34:09.5,-3.615244507,1.089361755,8.844180933,-1.251908397,-11.70992366,-3.93129771,24.87
34:09.6,-3.153163586,1.235408057,8.365340601,-3.213740458,-12.19847328,-0.129770992,24.83
34:09.8,-4.620809204,1.187524023,8.025363965,6.977099237,11.86259542,8.58778626,24.87
34:09.9,-2.916137622,2.085349646,9.002198242,3.290076336,-27.47328244,3.34351145,24.87
34:10.0,-2.966415857,1.151610999,8.485050684,-1.091603053,6.06870229,-13.53435115,24.87
34:10.2,-2.193088721,0.624886633,8.69574043,4.007633588,9.496183206,-12.29007634,24.87
34:10.3,-4.129997864,1.752555615,8.971073621,-0.221374046,-1.396946565,-5.320610687,24.89
34:10.4,-4.376600635,1.482010828,8.722076648,-1.65648855,-0.450381679,-0.473282443,24.85
34:10.6,-2.834734766,2.106897461,8.729259253,0.366412214,10.23664122,-1.435114504,24.87
34:10.7,-4.364629626,3.110067957,8.444349255,-5.748091603,-23.52671756,23.02290076,24.85
34:10.8,-3.126827368,1.043871924,8.836998328,5.832061069,8.923664122,-13.3740458,24.85
34:11.0,-3.457227197,1.539471667,8.762778076,-0.618320611,-0.763358779,-1.824427481,24.87
34:11.1,-2.923320227,2.43729729,9.126696729,-2.480916031,-18.90839695,12.46564885,24.87
34:11.2,-2.731784094,0.756567725,8.418013037,-0.549618321,-19.21374046,4.267175573,24.85
34:11.4,-2.774879724,0.955286462,9.375693701,2.389312977,10.51908397,-21.76335878,24.85
34:11.5,-3.526659045,1.936909143,8.303091357,-4.099236641,13.16793893,-1.160305344,24.87
34:11.6,-3.260902661,1.501164441,8.920795386,-3.229007634,-10.48854962,2.572519084,24.87
34:11.8,-3.433285181,1.541865869,9.009380847,-4.900763359,-67.44274809,35.39694656,24.85
34:12.0,-3.0286651,1.517923853,9.05726488,-5.366412214,-18.07633588,9.259541985,24.89
34:12.2,-3.14358678,1.35511814,9.236830005,2.20610687,0.65648855,-4.618320611,24.83
34:12.3,-2.324769812,1.558625281,8.892064966,-0.099236641,-2.297709924,1.603053435,24.85
34:12.6,-2.853888379,1.704671582,8.980650427,0.20610687,3.13740458,3.030534351,24.85
34:12.8,-2.920926025,1.539471667,8.985438831,-1.900763359,0.65648855,3.801526718,24.87
34:13.0,-2.873041992,1.525106458,8.844180933,-1.72519084,0.404580153,-0.41221374,24.85
34:13.1,-2.932897034,1.628057129,8.848969336,-1.610687023,-0.694656489,-1.541984733,24.85
34:13.3,-3.004723083,1.623268726,8.75320127,-0.946564885,-0.923664122,-2.908396947,24.87
34:13.6,-3.411737366,1.611297717,8.477868079,-0.251908397,8.648854962,-3.847328244,24.83
34:13.8,-3.72058938,1.335964526,8.62391438,-6.290076336,4.954198473,0.618320611,24.85
34:14.0,-2.097320654,1.338358728,8.185775476,-12.87022901,-6.480916031,-4.839694656,24.87
34:14.1,-4.319139795,0.993593689,8.868122949,-6.312977099,-5.351145038,-9.854961832,24.83
34:14.3,-4.558559961,0.835576379,8.961496814,6.152671756,27,-14.35114504,24.85
34:14.5,-2.834734766,0.627280835,8.875305554,14.6870229,-9.603053435,-25.19847328,24.87
34:14.7,-2.827552161,1.395819568,9.04289967,11.18320611,-10.38167939,-25.05343511,24.85
34:14.9,-2.044648218,1.438915198,8.362946399,29.92366412,4.770992366,-45.19083969,24.87
34:15.0,-3.284844678,1.886630908,7.857769849,45.6259542,15.92366412,-45.64122137,24.85
34:15.3,-4.481945508,2.458845105,8.353369592,38.41221374,11.96183206,-46.79389313,24.89
34:15.5,-3.790021228,2.700659473,8.489839087,-20.2519084,3.20610687,20.71755725,24.87
34:15.7,-5.45159718,1.465251416,7.953537915,-2.526717557,-16.36641221,12.98473282,24.89
34:15.8,-4.783614917,2.334346619,8.271966736,-15.47328244,-10.90839695,13.23664122,24.87
34:16.0,-4.620809204,2.090138049,7.544129431,-12.00763359,-2.801526718,14.6870229,24.85
34:16.3,-3.318363501,1.711854187,8.48026228,-6.72519084,9.93129771,-7.099236641,24.87
34:16.5,-3.969586353,1.273715283,8.288726147,-12.27480916,13.5648855,-10.84732824,24.87
34:16.6,-3.660734338,1.022324109,8.176198669,-13.11450382,8.664122137,-4.320610687,24.87
34:16.8,-4.836287354,0.60573302,8.264784131,-4.770992366,7.389312977,-0.374045802,24.85
34:17.0,-4.7596729,0.450109912,8.391676819,-4.129770992,2.244274809,-3.427480916,24.85
34:17.3,-5.382165332,0.189141931,7.862558252,3.34351145,-10.11450382,-14.73282443,24.87
34:17.4,-4.407725256,0.220266553,8.087613208,4.488549618,-9.045801527,-14.54961832,24.85
34:17.6,-4.134786267,0.148440503,7.984662537,1.877862595,-8.641221374,-13.54198473,24.85
34:17.8,-4.594472986,0.184353528,8.068459595,7.450381679,-4.86259542,-8.687022901,24.87
34:18.1,-4.666299036,0.514753357,8.535328918,7.870229008,-6.213740458,-11.02290076,24.89
34:18.2,-4.513070129,0.220266553,8.135497241,4.488549618,-1.442748092,-9.213740458,24.85
34:18.4,-4.493916516,0.426167896,8.367734802,3.877862595,-3.435114504,-6.221374046,24.87
34:18.6,-4.479551306,0.294486804,8.130708838,0.541984733,0.801526718,-1.923664122,24.87
34:18.8,-4.582501978,0.361524451,8.439560852,1.633587786,0.992366412,-10.03053435,24.91
34:19.1,-4.328716602,0.335188232,8.252813123,2.93129771,-2.816793893,-7.13740458,24.87
34:19.3,-4.479551306,0.124498486,8.267178333,2.816793893,-1.404580153,-2.259541985,24.85
34:19.5,-4.589684583,0.095768066,8.365340601,0.435114504,-1.496183206,1.190839695,24.85
34:19.7,-4.388571643,0.146046301,8.137891443,-2.030534351,0.083969466,2.465648855,24.87
34:20.0,-4.735730884,0.502782349,8.413224634,-7.022900763,-34.03053435,-0.404580153,24.85
34:20.1,-6.002263562,-0.59136781,8.588001355,0.381679389,12.44274809,10.54961832,24.85
34:20.3,-4.36941803,-0.344765039,8.164227661,-0.992366412,5.129770992,-5.099236641,24.85
34:20.5,-3.869029883,0.49081134,8.913612781,-9.167938931,-6.282442748,-12.70992366,24.85
34:20.7,-4.786009119,-0.237025964,8.236053711,3.732824427,11.74045802,6.06870229,24.85
34:20.9,-3.754108203,-0.095768066,8.520963708,6.312977099,3.061068702,-0.740458015,24.85
34:21.1,-4.618415002,0.107739075,8.252813123,12.30534351,-2.34351145,-9.198473282,24.85
34:21.3,-4.335899207,0.696712683,8.52335791,16.21374046,8.213740458,-16.26717557,24.85
34:21.5,-4.726154077,1.058237134,7.608772876,14.96183206,18.42748092,-39.83206107,24.83
34:21.7,-4.505887524,0.775721338,7.955932117,23.45038168,3.229007634,-50.24427481,24.81
34:21.8,-5.415684155,0.854729993,8.013392957,17.88549618,-0.259541985,-24.95419847,24.81
34:22.0,-5.185840796,-0.01436521,7.285555652,5.79389313,-6.870229008,-5.954198473,24.81
34:22.1,-5.374982727,0.282515796,7.785943799,4.511450382,-6.389312977,-5.259541985,24.83
34:22.3,-5.463568188,0.148440503,7.738059766,-6.526717557,-7.152671756,17.19847328,24.85
34:22.6,-4.77403811,0.213083948,8.678981018,-29.38167939,-5.572519084,53.59541985,24.83
34:22.8,-4.323928198,0.440533105,8.822633118,-17.38167939,-7.572519084,28.76335878,24.83
34:23.0,-4.015076184,-0.397437476,9.066841687,-14.21374046,-5.755725191,14.29007634,24.83
34:23.2,-4.371812231,-0.660799658,7.829039429,-6.022900763,-11.08396947,3.41221374,24.77
34:23.4,-3.919308118,-0.766144531,7.716511951,3.877862595,-7.694656489,-1.572519084,24.83
34:23.6,-5.099649536,-1.865083093,8.257601526,25.20610687,-12.45801527,-29.96183206,24.83
34:23.8,-4.596867188,-0.79248075,7.096413721,29.12977099,-4.198473282,-48.30534351,24.83
34:23.9,-5.197811804,0.174776721,8.68137522,27.09160305,-6.770992366,-51.32824427,24.81
34:24.1,-3.529053247,1.034295117,9.35893429,18.79389313,-7.511450382,-39.13740458,24.81
34:24.4,-2.772485522,0.711077893,8.633491187,9.603053435,-9.358778626,-22.29770992,24.77
34:24.6,-2.592920398,-0.150834705,7.608772876,26.51145038,3.335877863,-0.687022901,24.81
34:24.8,-3.265691064,2.049436621,5.657498523,76.05343511,-27.22900763,24.5648855,24.77
34:25.0,-2.810792749,7.343016492,5.094861133,100.3740458,-37.25954198,51.52671756,24.81
34:25.1,-1.80283385,8.125920435,3.701435767,66.67938931,7.93129771,53.26717557,24.77
34:25.4,-2.53785376,10.00776294,3.739742993,-12.81679389,37.10687023,35.4351145,24.75
34:25.5,0.011971008,8.860940344,3.981557361,-12.42748092,91.77862595,13.92366412,24.77
34:25.7,-0.01436521,6.452373474,4.896142395,-41.71755725,64.76335878,4.900763359,24.75
34:25.8,-0.445321509,6.672640027,6.234501123,-21.24427481,37.72519084,-3.908396947,24.75
34:25.9,-0.301669409,6.675034229,6.047753394,-18.6259542,36.5648855,-10.29770992,24.77
34:26.2,-2.396595862,7.577648254,4.424484668,7.13740458,37.73282443,19.58778626,24.75
34:26.3,-2.341529224,9.093177905,3.871424084,1.595419847,38.93129771,47.83206107,24.75
34:26.4,-2.880224597,8.896853369,4.041412402,1.79389313,53.73282443,38.09160305,24.77
34:26.6,-1.584961499,9.356540088,3.936067529,-2.41221374,60.25954198,62.42748092,24.77
34:26.8,-1.580173096,11.12824932,3.82114585,-13.13740458,85.82442748,75.86259542,24.77
34:26.9,-1.074996545,7.146691956,4.560954163,-31.90076336,44.33587786,21.59541985,24.75
34:27.0,-1.098938562,7.462726575,5.011064075,-17.85496183,61.10687023,18.20610687,24.77
34:27.2,-0.5770026,7.125144141,5.135562561,0.870229008,32.88549618,1.244274809,24.75
34:27.3,-0.316034619,8.872911353,4.659116431,-4.129770992,51.86259542,9.946564885,24.75
34:27.5,-2.935291235,8.66701001,3.794809631,-14.19083969,14.80152672,-2.786259542,24.75
34:27.6,-2.140416284,10.17535706,3.768473413,-25.29007634,20.41984733,3.419847328,24.75
34:27.7,-2.712630481,8.396465222,3.174711401,-27.8778626,59.88549618,9,24.73
34:27.8,-2.798821741,8.602366565,3.643974927,-23.9389313,40.83969466,30.36641221,24.73
34:27.9,-3.007117285,8.204929089,3.974374756,-27.90076336,56.60305344,48.7480916,24.73
34:28.0,-2.774879724,8.791508496,4.381389038,-27.42748092,50.93129771,69.14503817,24.73
34:28.2,-2.633621826,7.486668591,4.747701892,-30.22137405,87.67938931,48.90839695,24.73
34:28.3,-1.388636963,7.599196069,4.812345337,-32.40458015,46.29007634,39.26717557,24.73
34:28.4,-1.003170496,7.814674219,4.721365674,-26.26717557,47.42748092,43.74045802,24.73
34:28.5,-1.024718311,7.544129431,4.690241052,-15.40458015,44.67175573,37.87022901,24.73
34:28.7,-0.031124622,7.587225061,4.7596729,-7.404580153,63.77099237,52.24427481,24.75
34:28.8,-1.206677637,8.590395557,4.481945508,-5.396946565,98.22900763,68.67938931,24.75
34:28.9,-1.505952844,8.441955054,3.751714001,-10.47328244,78.58015267,57.77099237,24.75
34:29.0,-3.459621399,8.813056311,2.487575525,3.557251908,69.26717557,59.02290076,24.75
34:29.1,-3.021482495,8.650250598,2.91374342,19.04580153,49.92366412,40.19847328,24.75
34:29.3,-1.819593262,9.696516724,3.241749048,-18.91603053,100.5801527,37.50381679,24.75
34:29.4,-2.00394679,8.554482532,3.368641736,1.992366412,84.26717557,35.66412214,24.75
34:29.5,0.318428821,9.366116895,3.610456104,2.160305344,13.29770992,41.79389313,24.69
34:29.6,-0.289698401,9.023746057,4.328716602,-2.778625954,51.74045802,26.00763359,24.73
34:29.8,-0.330399829,8.080430603,4.290409375,26.70992366,23.48854962,28.16030534,24.75
34:29.9,0.761356128,8.224082703,4.35505282,-2.198473282,-1.748091603,12.26717557,24.73
34:30.0,0.117315881,8.367734802,4.606443994,4.34351145,7.389312977,-7.312977099,24.75
34:30.1,0.742202515,8.585607153,4.036623999,-0.893129771,-15.3129771,-23.19083969,24.73
34:30.2,-0.840364783,9.531316809,4.321533997,-18.99236641,-65.09923664,-56.25954198,24.73
34:30.4,0.05746084,8.489839087,3.294421484,-27.49618321,12.96183206,-41.60305344,24.71
34:30.5,-0.696712683,8.939948999,3.136404175,-3.480916031,-13.77862595,-23.32061069,24.75
34:30.6,-0.737414111,8.865728748,3.280056274,3.419847328,-2.030534351,1.480916031,24.75
34:30.7,-1.367089148,9.059659082,3.064578125,14.24427481,4.687022901,18.45801527,24.71
34:30.8,-1.865083093,8.980650427,2.911349219,15.58778626,18.2519084,22.44274809,24.71
34:31.0,-1.699883179,9.67736311,3.418919971,-5.007633588,-7.27480916,17.32061069,24.73
34:31.1,-1.814804858,9.378087903,3.107673755,-20.57251908,58.38931298,14.00763359,24.75
34:31.2,-1.922543933,9.07163009,3.84987627,0.229007634,-16.89312977,0.061068702,24.75
34:31.3,-0.782903943,8.518569507,4.137180469,0.305343511,-15.32824427,-3.259541985,24.75
34:31.4,-0.976834277,8.750807068,3.842693665,-15.00763359,-32.27480916,-23.91603053,24.73
34:31.6,-1.307234106,8.813056311,4.094084839,-21.08396947,-25.20610687,-38.09160305,24.77
34:31.8,-1.436520996,8.362946399,4.458003491,0.511450382,-26.38931298,-14.90839695,24.73
34:31.9,-1.321599316,8.355763794,4.7596729,-8.786259542,-21.22900763,-10.75572519,24.75
34:32.0,-1.987187378,8.255207324,5.039794495,0.709923664,1.977099237,0.328244275,24.75
34:32.1,-1.522712256,7.359775903,4.94642063,0.595419847,-22.23664122,-10.93129771,24.73
34:32.3,-2.176329309,8.073247998,4.900930798,-8.977099237,5.038167939,4.229007634,24.73
34:32.4,-2.35110603,7.807491614,4.881777185,2.305343511,-3.374045802,-21.73282443,24.73
34:32.5,-1.982398975,7.908048083,5.039794495,-5.251908397,-21.53435115,-5.511450382,24.75
34:32.6,-2.719813086,8.092401611,4.757278699,0.572519084,15.36641221,-12.33587786,24.73
34:32.7,-1.747767212,7.548917834,5.140350964,6.320610687,-7.435114504,-0.374045802,24.71
34:32.9,-2.655169641,7.996633545,4.812345337,0.076335878,15.29770992,10.00763359,24.73
34:33.0,-2.561795776,7.91762489,5.001487268,1.687022901,-1.259541985,4.541984733,24.73
34:33.1,-2.432508887,7.812280017,4.920084412,-5.93129771,-0.86259542,8.923664122,24.75
34:33.2,-2.92810863,7.587225061,4.750096094,-3.106870229,16.36641221,1.022900763,24.71
34:33.3,-2.863465186,7.891288672,4.910507605,3.541984733,-11.61068702,5.702290076,24.77
34:33.6,-2.724601489,8.087613208,4.735730884,-6.770992366,5.870229008,2.404580153,24.71
34:33.7,-2.116474268,7.91762489,4.912901807,-11.22137405,3.038167939,4.480916031,24.73
34:33.8,-2.288856787,7.522581616,4.994304663,-10.13740458,15.51908397,1.480916031,24.77
34:34.0,-2.432508887,7.692569934,5.396530542,-5.351145038,1.198473282,1.450381679,24.73
34:34.1,-2.272097375,7.611167078,5.406107349,5.251908397,-6.351145038,4.717557252,24.73
34:34.3,-2.485181323,7.26879624,5.762843396,9.763358779,-17.88549618,11.8778626,24.75
34:34.4,-1.850717883,7.912836487,5.430049365,-16.4351145,8.038167939,-4.335877863,24.73
34:34.5,-2.233790149,7.32625708,5.367800122,-4.938931298,-16.05343511,-13.20610687,24.73
34:34.6,-2.099714856,7.359775903,5.221753821,-1.129770992,-2.671755725,-3.488549618,24.75
34:34.8,-1.853112085,7.347804895,5.602431885,2.419847328,-11.21374046,-5.297709924,24.73
34:34.9,-2.257732166,7.319074475,5.386953735,2.145038168,-1.93129771,0.702290076,24.73
34:35.0,-2.3080104,7.465120776,5.568913062,3.519083969,-1.625954198,0.175572519,24.71
34:35.1,-2.343923425,7.402871533,5.60961449,4.847328244,-4.778625954,0.374045802,24.73
34:35.2,-2.310404602,7.601590271,5.485116003,-0.763358779,-2.893129771,2.221374046,24.73
34:35.3,-2.157175696,7.711723547,5.286397266,-4.679389313,-0.671755725,3.908396947,24.75
34:35.5,-2.159569897,7.697358337,5.07570752,-4.473282443,3.427480916,3.870229008,24.73
34:35.6,-1.740584607,7.603984473,5.406107349,-3.832061069,2.503816794,7.038167939,24.75
34:35.7,-1.936909143,7.491456995,5.628768103,-7.328244275,4.450381679,7.045801527,24.73
34:35.8,-1.563413684,6.701370447,5.904101294,-3.786259542,0.938931298,-1.099236641,24.73
34:36.0,-0.761356128,6.354211206,5.786785413,19.6870229,0.167938931,0.763358779,24.73
34:36.1,-1.098938562,7.034164478,5.65271012,17.79389313,3.770992366,-2.114503817,24.75
34:36.2,-2.628833423,8.06127699,4.833893152,3.045801527,23.98473282,0.160305344,24.73
34:36.3,-2.444479895,8.101978418,3.7493198,-2.458015267,-6.679389313,-7.396946565,24.73
34:36.4,-1.482010828,9.2296474,3.433285181,1.79389313,4.053435115,24.3129771,24.73
34:36.6,-2.671929053,8.683769421,3.301604089,-4.816793893,5.618320611,33.71755725,24.75
34:36.7,-0.459686719,9.900023865,2.91374342,8.595419847,36.24427481,66.24427481,24.73
34:36.8,-1.98958158,7.979874133,3.524264844,18.6259542,37.34351145,27.0610687,24.73
34:36.9,-0.002394202,8.884882361,3.466804004,23.67175573,7.312977099,18.30534351,24.73
34:37.0,-0.210689746,9.404424121,3.265691064,7.641221374,-4.282442748,-3.534351145,24.73
34:37.2,-0.512359155,9.107543115,3.18668241,-1.305343511,12.96946565,-4.564885496,24.73
34:37.3,0.038307227,8.827421521,2.954444849,-8.580152672,7.190839695,3.229007634,24.77
34:37.4,-0.378283862,8.920795386,2.834734766,1.038167939,16.96183206,7.839694656,24.73
34:37.5,-0.696712683,9.560047229,2.657563843,18.55725191,7.618320611,9.503816794,24.71
34:37.6,-1.101332764,9.224858997,2.686294263,15.48854962,-22.48854962,3.893129771,24.73
34:37.8,-1.371877551,9.538499414,2.772485522,-5.34351145,-11.16793893,6.335877863,24.73
34:37.9,-0.529118567,9.363722693,2.741360901,-3.93129771,4.114503817,-4.595419847,24.75
34:38.0,-0.560243188,9.414000928,2.925714429,-7.015267176,-26.22137405,-14.96183206,24.73
34:38.1,-0.181959326,9.15782135,2.755726111,-9.129770992,-3.702290076,-12.70992366,24.75
34:38.2,-0.555454785,9.026140259,2.264914771,5.465648855,-5.511450382,-14.39694656,24.77
34:38.4,-0.435744702,9.227253198,2.315193005,-3.183206107,-26.41221374,-6.129770992,24.75
34:38.5,-0.641646045,9.378087903,2.578555188,0.832061069,-0.229007634,-7,24.73
34:38.6,-0.754173523,9.10036051,2.190694519,1.709923664,-1.099236641,1.442748092,24.75
34:38.7,-0.775721338,9.081206897,2.339135022,3.381679389,0.549618321,3.809160305,24.75
34:38.8,-1.041477722,9.469067566,2.518700146,-0.748091603,9.580152672,5.221374046,24.75
34:39.0,-0.916979236,9.078812695,2.384624854,-2.72519084,13.71755725,3.549618321,24.75
34:39.1,-0.991199487,9.062053284,2.109291663,-1.320610687,13.86259542,7.954198473,24.75
34:39.2,-1.058237134,9.550470422,2.264914771,3.419847328,22.84732824,5.625954198,24.73
34:39.3,-1.252167468,9.299079248,2.446874097,3.488549618,9.236641221,-2.65648855,24.71
34:39.4,-1.206677637,9.447519751,2.588131995,1.190839695,10.26717557,0.923664122,24.73
34:39.6,-1.357512341,9.397241516,2.743755103,-1.664122137,-0.954198473,-1.030534351,24.73
34:39.7,-1.288080493,9.227253198,2.53785376,-4.389312977,-8.992366412,-2.564885496,24.73
34:39.8,-1.05344873,9.255983618,2.49475813,-4.885496183,-14.41984733,-2.290076336,24.71
34:39.9,-1.201889233,9.241618408,2.430114685,-1.86259542,-23.49618321,-0.79389313,24.73
34:40.0,-1.108515369,9.18655177,2.573766785,-3.832061069,-23.39694656,-1.473282443,24.75
34:40.2,-1.218648645,9.167398157,2.473210315,-5.572519084,-23.22900763,-3.374045802,24.75
34:40.3,-0.967257471,9.378087903,2.600103003,-9.900763359,-13.84732824,-6.748091603,24.71
34:40.4,-0.921767639,9.093177905,2.703053674,1.27480916,-41.00763359,1.694656489,24.71
34:40.5,-0.907402429,8.937554797,2.748543506,-8.450381679,-16.88549618,-3.091603053,24.75
34:40.6,-0.811634363,9.162609753,2.643198633,-9.244274809,-9.740458015,-10.65648855,24.75
34:40.8,-1.180341418,8.944737402,3.263296863,-3.763358779,-14.67938931,-10.88549618,24.75
34:40.9,-0.79248075,9.165003955,3.775656018,-14.41984733,-27.83206107,-16.90839695,24.73
34:41.0,-1.185129822,8.499415894,4.015076184,-22.6870229,-11.92366412,-11.4351145,24.73
34:41.1,-1.2976573,7.994239343,3.581725684,-20.25954198,12.20610687,-15,24.73
34:41.2,-1.501164441,8.245630518,3.926490723,-2.496183206,-1.061068702,-6.564885496,24.77
34:41.5,-1.113303772,8.693346228,3.902548706,17.92366412,7.427480916,21.50381679,24.77
34:41.7,-2.145204687,9.744400757,3.744531396,17.6259542,-11.50381679,18.80152672,24.75
34:41.8,-0.837970581,9.109937317,3.260902661,-1.885496183,0.007633588,-1.27480916,24.77
34:42.0,-0.675164868,9.28710824,2.89937821,-6.79389313,-0.320610687,-1.053435115,24.75
34:42.1,-0.586579407,9.284714038,2.904166614,-10.04580153,13,-5.610687023,24.75
34:42.3,-0.780509741,8.777143286,3.15795199,-11.41984733,9.320610687,-9.702290076,24.71
34:42.4,-1.209071838,8.633491187,3.05739552,1.34351145,17.54961832,4.122137405,24.73
34:42.5,-1.276109485,8.927977991,3.10049115,9.503816794,3.641221374,7.27480916,24.75
34:42.6,-1.644816541,9.081206897,3.059789722,9.015267176,8.908396947,2.465648855,24.71
34:42.8,-1.714248389,9.275137231,3.141192578,11.2519084,-13.33587786,-1.335877863,24.77
34:43.0,-1.247379065,9.203311182,2.664746448,-1.297709924,-14.45038168,-4.465648855,24.75
34:43.1,-1.2976573,9.457096558,2.640804431,-3.458015267,-20.27480916,-1.145038168,24.73
34:43.2,-1.09654436,9.241618408,2.516305945,-11.69465649,-8.633587786,-3.969465649,24.75
34:43.3,-1.458068811,9.428366138,2.236184351,-8.72519084,2.580152672,-2.221374046,24.71
34:43.5,-1.359906543,8.760383875,2.621650818,-4.083969466,-6.770992366,2.34351145,24.73
34:43.6,-1.537077466,8.846575134,2.920926025,-3.404580153,-1.06870229,10.64122137,24.77
34:43.8,-1.565807886,8.765172278,3.227383838,-6.893129771,21.46564885,2.786259542,24.73
34:43.9,-0.500388147,9.188945972,3.651157532,-9.65648855,-31.12977099,-2.809160305,24.73
34:44.0,-0.56263739,8.702923035,4.108450049,-10.96183206,4.618320611,-0.305343511,24.73
34:44.2,-0.4333505,8.315062366,4.21140072,5.923664122,-16.4351145,11.5648855,24.75
34:44.3,-0.124498486,8.125920435,3.902548706,6.076335878,27.38167939,16.3129771,24.73
34:44.4,-0.840364783,8.109161023,3.77805022,19.65648855,16.67938931,22.08396947,24.75
34:44.5,-0.957680664,8.63827959,4.7596729,22.06870229,17.42748092,11.65648855,24.73
34:44.6,-1.165976208,9.461884961,4.800374329,7.847328244,20.12977099,1.244274809,24.77
34:44.9,-0.924161841,12.1122662,5.793968018,-20.54961832,-155.2137405,-22.14503817,24.73
34:45.0,0.038307227,8.169016064,1.886630908,-24.83969466,3.702290076,-32.96946565,24.71
34:45.1,-1.666364355,9.0859953,3.15795199,-26.14503817,52.67175573,24.11450382,24.71
34:45.2,-0.687135876,11.13303772,2.691082666,-15.55725191,63.42748092,59.16793893,24.73
34:45.3,-1.309628308,6.11479104,2.849099976,-3.801526718,64.26717557,33.35114504,24.71
34:45.5,-0.047884033,7.113173132,2.571372583,-23.03816794,46.84732824,8.396946565,24.71
34:45.6,-1.786074438,6.421248853,4.288015173,-15.45038168,8.106870229,-4.267175573,24.67
34:45.7,-2.063801831,7.984662537,5.650315918,25.77862595,3.564885496,-10.35114504,24.67
34:45.8,-3.038241907,12.07874738,6.062118604,37.53435115,11.21374046,-6.458015267,24.69
34:45.9,-1.553836877,11.59511864,4.199429712,-22.28244275,-113.7938931,-30.5648855,24.75
34:46.1,-0.660799658,8.384494214,2.695871069,-47.60305344,17.08396947,-46.71755725,24.65
34:46.2,-0.378283862,8.116343628,2.43729729,-38.81679389,-3.015267176,6.022900763,24.67
34:46.3,-0.955286462,14.55195769,2.284068384,27.03816794,76.36641221,130.0610687,24.67
34:46.4,-0.514753357,8.513781104,3.021482495,29.80152672,-32.99236641,46.6259542,24.67
34:46.5,-0.823605371,7.32625708,3.332728711,0.717557252,131.7328244,31.94656489,24.67
34:46.7,-1.850717883,6.270414148,5.612008691,15.25954198,-9.870229008,8.099236641,24.67
34:46.8,-1.613691919,12.81855569,5.456385583,22.54198473,12.51908397,19.28244275,24.65
34:46.9,-2.588131995,9.107543115,3.145980981,-14.19847328,-76.93129771,-41.45038168,24.63
34:47.0,-0.316034619,8.286331946,1.88902511,-58.42748092,-37.25954198,-51.83206107,24.65
34:47.1,-1.400607971,9.504980591,1.987187378,-72.90076336,-9.969465649,-52.83969466,24.63
34:47.3,-1.077390747,9.160215552,2.090138049,-22.41984733,19.14503817,6.503816794,24.63
34:47.4,-0.60573302,5.427655164,2.801215942,54.47328244,13.32824427,29.02290076,24.65
34:47.5,0.76375033,7.343016492,4.400542651,59.17557252,-61.03053435,41.28244275,24.63
34:47.6,-1.956062756,8.741230261,5.154716174,24.99236641,-17.2519084,21.80152672,24.59
34:47.8,-1.836352673,14.40830559,5.264849451,17.48854962,-99.14503817,-7.053435115,24.61
34:48.0,-1.970427966,12.20085166,4.314351392,-51.09160305,-199.4885496,-29.96183206,24.59
34:48.2,-0.976834277,9.710881934,0.864306799,-87.58778626,51.16793893,-55.3129771,24.61
34:48.3,-0.181959326,8.889670764,2.181117712,-20.7480916,-0.129770992,-8.27480916,24.61
34:48.4,0.033518823,7.639897498,3.746925598,58.52671756,-40.14503817,6.061068702,24.61
34:48.6,0.560243188,5.398924744,2.475604517,58.18320611,29.74045802,50.3129771,24.59
34:48.8,-1.994369983,12.2607067,4.431667273,43.39694656,88.6259542,23.16030534,24.55
34:49.0,-0.727837305,8.236053711,1.405396375,-47.67175573,-62.86259542,-55.80916031,24.59
34:49.2,-0.117315881,9.722852942,1.630451331,-27.08396947,33.77099237,-8.259541985,24.55
34:49.4,-2.798821741,9.14345614,5.959167932,16.78625954,-16.48091603,-34.36641221,24.59
34:49.7,-2.145204687,6.493074902,5.497087012,-6.954198473,1.442748092,-27.78625954,24.59
34:49.9,-2.197877124,10.56321772,4.491522314,20.06870229,-17.82442748,43.27480916,24.55
34:50.0,-0.531512769,7.857769849,1.323993518,-34.11450382,59.16793893,3.618320611,24.59
34:50.2,0.131681091,9.744400757,1.479616626,-9.885496183,45.69465649,85.84732824,24.55
34:50.4,-1.443703601,10.69729302,4.115632654,25.52671756,2.030534351,20.83206107,24.51
34:50.6,-0.313640417,6.59123717,4.807556934,7.320610687,57.35877863,3.778625954,24.59
34:50.8,-0.629675037,9.203311182,5.573701465,-1.427480916,-27.63358779,-20.69465649,24.55
34:50.9,-1.149216797,10.58237134,2.892195605,-50.25954198,-26.72519084,-36.15267176,24.55
34:51.1,-0.280121594,9.744400757,1.393425366,-47.8778626,-6.801526718,-47.98473282,24.55
34:51.3,-1.570596289,9.334992273,3.24414325,7.961832061,-19.84732824,37.92366412,24.55
34:51.6,-0.699106885,8.616731775,4.513070129,24.92366412,21.96946565,65.48091603,24.53
34:51.7,-1.134851587,8.69574043,4.7596729,14.00763359,19.32824427,39.45038168,24.55
34:51.9,-0.196324536,8.657433203,4.520252734,-0.267175573,9.160305344,3.503816794,24.53
34:52.1,-0.435744702,8.56645354,3.964797949,2.297709924,6.633587786,-2.72519084,24.59
34:52.3,-0.703895288,9.054870679,3.818751648,-6.183206107,5.694656489,0.625954198,24.55
34:52.5,-0.596156213,8.971073621,3.737348792,-4.175572519,1.633587786,-4.816793893,24.55
34:52.7,-0.569819995,8.700528833,4.410119458,-9.282442748,-3.72519084,1.72519084,24.55
34:52.9,-1.345541333,8.128314636,5.023035083,5.740458015,-28.72519084,-21.81679389,24.59
34:53.1,-0.972045874,8.664615808,3.478775012,-40.13740458,23.86259542,-20.21374046,24.59
34:53.3,-1.663970154,8.671798413,2.968810059,-32.80916031,44.81679389,-33.76335878,24.55
34:53.5,-2.080561243,6.852205151,6.773196497,17.51145038,-12.78625954,0.458015267,24.55
34:53.7,-2.367865442,7.654262708,4.7596729,4.778625954,-19.73282443,11.22137405,24.59
34:53.9,-2.468421912,7.90325968,4.912901807,2.450381679,-9.297709924,-3.320610687,24.59
34:54.0,-1.912967126,7.682993127,4.477157104,-14.41221374,17.49618321,-22.77099237,24.55
34:54.3,-3.033453503,7.718906152,5.078101721,10.38931298,-2.160305344,-4.977099237,24.55
34:54.5,-2.588131995,8.149862451,5.207388611,-2.320610687,-5.282442748,8.053435115,24.59
34:54.7,-1.611297717,8.240842114,4.88895979,-9.458015267,-0.259541985,12.51908397,24.63
34:54.8,-1.017535706,8.511386902,4.680664246,-22.94656489,29.67938931,19.12977099,24.59
34:55.1,-1.017535706,9.021351855,3.983951562,-42.25954198,50.5648855,58.15267176,24.61
34:55.2,-1.83156427,8.420407239,4.28322677,-47.67938931,91.33587786,80.16030534,24.59
34:55.4,-3.481169214,10.41477722,5.204994409,-38.6259542,58.3129771,91.49618321,24.63
34:55.5,-4.881777185,8.063671191,3.694253162,-26.08396947,130.2442748,115.2519084,24.61
34:55.6,-4.750096094,8.202534888,4.122815259,0.572519084,97.97709924,94.04580153,24.61
34:55.8,-4.39814845,7.161057166,5.204994409,3.854961832,76.11450382,66.82442748,24.61
34:55.9,-3.330334509,6.787561707,6.069301208,-7.045801527,61.45801527,49.40458015,24.59
34:56.1,0.711077893,7.261613635,6.095637427,7.244274809,58.53435115,29.36641221,24.61
34:56.2,-0.198718738,7.838616235,4.371812231,-0.977099237,80.80916031,65.35877863,24.59
34:56.4,-2.602497205,8.022969763,5.987898352,22.29007634,6.160305344,25.17557252,24.63
34:56.6,-1.321599316,9.074024292,6.28717356,22.2519084,-0.801526718,11.58015267,24.65
34:56.7,-2.049436621,10.1011368,5.212177014,9.954198473,-35.35877863,-8.083969466,24.61
34:56.8,-2.315193005,10.76911907,2.865859387,-14.18320611,-85.23664122,-32.35877863,24.61
34:56.9,-0.062249243,8.676586816,1.68791217,-45.90839695,4.419847328,-64.00763359,24.61
34:57.0,-1.544260071,8.245630518,2.056619226,-29.47328244,3.465648855,-42.7480916,24.61
34:57.2,-0.102950671,10.9654436,3.169922998,2.297709924,40.20610687,65.69465649,24.59
34:57.3,-3.490746021,9.251195215,4.4699745,26.64122137,16.45038168,35.14503817,24.55
34:57.5,-3.567360474,5.755660791,4.905719202,-31.40458015,43.96946565,-10.49618321,24.59
34:57.7,-5.102043738,8.865728748,4.448426685,57.06870229,-133.7022901,-21.47328244,24.59
34:57.9,-0.727837305,7.967903125,2.011129395,-56.78625954,14.10687023,-38.11450382,24.59
34:58.1,-0.809240161,9.902418066,1.517923853,-41.16030534,8.419847328,1.938931298,24.55
34:58.3,-1.11090957,8.310273962,4.544194751,54.50381679,-65.67938931,54.60305344,24.61
34:58.4,-2.753331909,6.715735657,4.78840332,28.35114504,24.17557252,5.755725191,24.59
34:58.6,-1.786074438,15.4354181,5.777208606,43.80152672,-32.94656489,-4.007633588,24.55
34:58.8,-0.253785376,7.922413293,0.579396802,-73.1221374,-29.30534351,-76.91603053,24.53
34:59.0,0.150834705,8.264784131,1.498770239,-58.90076336,72.75572519,-3.519083969,24.53
34:59.2,-0.296881006,9.672574707,3.160346191,33.0610687,58.74045802,76.74045802,24.55
34:59.4,-4.91769021,8.274360938,4.659116431,28.78625954,-0.122137405,45.84732824,24.53
34:59.6,-2.135627881,8.892064966,5.420472559,-3.58778626,-2.06870229,-9.183206107,24.55
34:59.7,-0.356736047,9.339780676,1.671152759,-75.64122137,0.221374046,-53.5648855,24.55
35:00.0,-0.122104285,7.86016405,2.655169641,-37.54961832,69.28244275,-12.44274809,24.55
35:00.2,-0.174776721,10.9630494,4.132392065,-6.526717557,118.519084,85.88549618,24.53
35:00.4,-3.011905688,8.944737402,9.641450085,58.69465649,19.51145038,61.70992366,24.53
35:00.5,-1.194706628,10.5344873,6.787561707,28.29007634,9.152671756,17.90076336,24.53
35:00.8,0.313640417,9.588777649,2.358288635,-77.70992366,-25.09160305,-65.07633588,24.51
35:01.0,0.63446344,8.650250598,1.77410343,-57.3740458,1.870229008,-1.465648855,24.47
35:01.2,-0.177170923,9.96466731,4.34068761,54.35877863,-31.07633588,70.13740458,24.49
35:01.3,-0.885854614,6.672640027,3.770867615,55.16030534,24.99236641,63.41221374,24.47
35:01.5,-1.347935535,11.51132158,3.581725684,23.51145038,-34.65648855,-24.13740458,24.49
35:01.8,-0.701501086,9.880870251,1.584961499,-99.12977099,-46.44274809,-101.7862595,24.45
35:02.0,0.670376465,7.659051111,1.034295117,-41.02290076,106.9694656,9.473282443,24.45
35:02.1,-1.86029469,9.89284126,2.619256616,42.81679389,6.442748092,112.7862595,24.45
35:02.3,1.130063184,9.220070593,4.429273071,44.06870229,-17.66412214,25.19847328,24.41
35:02.5,0.253785376,9.512163196,3.136404175,-11.41984733,-59.85496183,-52.27480916,24.41
35:02.8,0.138863696,8.676586816,0.902614026,-72.35877863,68.67175573,-59.29770992,24.43
35:03.0,-0.684741675,10.8170031,1.620874524,-20.76335878,60.09923664,111.8015267,24.43
35:03.2,0.761356128,9.416395129,4.517858533,34.6870229,47.85496183,80.41221374,24.39
35:03.4,-0.383072266,8.056488586,5.274426257,13,27.9389313,12.50381679,24.39
35:03.7,-0.112527478,8.633491187,3.897760303,-43.94656489,36.24427481,-23.36641221,24.43
35:03.9,-0.442927307,8.159439258,4.115632654,-5.442748092,8.427480916,-22.81679389,24.39
35:04.0,-1.319205115,8.164227661,4.534617944,2.709923664,15.47328244,-9.847328244,24.43
35:04.2,-1.893813513,8.396465222,3.914519714,1.167938931,18.67938931,1.86259542,24.41
35:04.4,-1.278503687,8.049305981,3.14358678,14.52671756,34.30534351,21.01526718,24.43
35:04.7,-2.908955017,9.622296472,2.111685864,22.21374046,2.854961832,23.70992366,24.41
35:04.8,-1.7310078,9.931148486,2.420537878,1.809160305,36.18320611,16.90076336,24.43
35:05.0,-1.115697974,9.780313782,1.996764185,-17.38931298,19.15267176,11.63358779,24.41
35:05.2,-1.072602344,8.73883606,2.964021655,-4.290076336,-36.33587786,-1.954198473,24.41
35:05.5,-0.045489832,9.208099585,3.675099548,-6.335877863,-1.114503817,-4.816793893,24.41
35:05.6,-0.186747729,8.659827405,3.799598035,-2.190839695,-6.198473282,-11.41984733,24.39
35:05.8,-0.026336218,8.987833032,4.015076184,-0.366412214,-32.42748092,-9.671755725,24.41
35:06.0,-0.981622681,8.817844714,3.423708374,-18.26717557,14.67175573,2.709923664,24.41
35:06.2,-1.007958899,9.136273535,2.964021655,-5.610687023,6.908396947,3.832061069,24.39
35:06.4,-0.859518396,10.2423947,2.908955017,-2.687022901,19.48854962,21.50381679,24.39
35:06.6,0.11492168,10.69011041,3.787627026,-32.05343511,-17.53435115,42.24427481,24.39
35:06.8,2.233790149,5.556942053,4.93205542,-1.297709924,3.748091603,32.81679389,24.43
35:07.0,-0.414196887,7.292738257,7.108384729,-10.64122137,-35.97709924,-39.49618321,24.39
35:07.1,-1.316810913,8.03254657,5.549759448,-25.85496183,-54.0610687,-97.09923664,24.39
35:07.4,-4.685452649,8.540117322,4.608838196,6.992366412,-42.93129771,-102.9541985,24.37
35:07.6,-4.216189124,7.015010864,5.276820459,22.01526718,-41.09160305,-61.41984733,24.39
35:07.8,-3.047818713,5.968744739,5.856217261,-22.50381679,-22.66412214,-22.54961832,24.37
35:08.0,-5.173869788,6.6343328,6.775590698,-3.320610687,-56.73282443,-2.312977099,24.39
35:08.3,-2.91374342,4.060566016,5.937620117,-6.099236641,-2.251908397,-18.65648855,24.33
35:08.5,-4.577713574,4.826710547,5.779602808,17.51908397,-10.70229008,-38.08396947,24.33
35:08.7,-5.327098694,4.77403811,5.073313318,29.36641221,-29.81679389,-21.51145038,24.31
35:08.9,-6.277596753,5.736507178,5.741295581,-0.893129771,-22.30534351,14.60305344,24.29
35:09.0,-5.530605835,5.389347937,5.415684155,-3.79389313,-5.427480916,18.79389313,24.31
35:09.3,-2.894589807,5.671863733,6.888118176,-6.06870229,-17,38.36641221,24.37
35:09.5,-1.836352673,5.528211633,6.461950281,5.190839695,-7.755725191,-7.083969466,24.33
35:09.7,-3.12922157,5.954379529,6.28717356,27.12977099,-30.02290076,-42.93129771,24.37
35:09.8,-4.122815259,5.901707092,5.518634827,31.35114504,-30.06870229,-62.55725191,24.31
35:10.0,-5.477933398,6.045359192,6.066907007,27.03816794,-11.38931298,-87.76335878,24.33
35:10.2,-5.329492896,5.815515833,6.10042583,2.847328244,-58.03816794,-98.79389313,24.33
35:10.4,-4.525041138,3.507505432,6.950367419,-9.13740458,-36.61068702,-36.22900763,24.31
35:10.6,-4.067748621,1.920149731,7.647080103,-11.32061069,-31.54198473,20.19083969,24.33
35:10.7,-3.864241479,2.434903088,8.59518396,-13.70992366,-24.15267176,41.35877863,24.31
35:11.0,-2.5953146,2.475604517,8.353369592,-11.24427481,-13.96946565,31.81679389,24.33
35:11.2,-1.537077466,2.633621826,9.040505469,1.244274809,-11.78625954,2.320610687,24.29
35:11.4,-1.90339032,2.789244934,8.774749084,-3.992366412,1.282442748,-2.404580153,24.29
35:11.5,-2.305616199,2.669534851,8.808267908,-5.20610687,3.557251908,-1.251908397,24.31
35:11.7,-2.798821741,2.384624854,9.002198242,-4.213740458,-0.740458015,3.992366412,24.29
35:12.0,-2.142810486,1.80283385,9.423577734,-6.236641221,-11.63358779,4.633587786,24.31
35:12.2,-2.051830823,1.697488977,8.971073621,-7.946564885,1.687022901,2.213740458,24.27
35:12.3,-2.5953146,1.34075293,8.935160596,-3.58778626,-15.24427481,-2.786259542,24.31
35:12.5,-1.295263098,1.872265698,9.246406812,-0.305343511,-4.175572519,1.648854962,24.29
35:12.8,-1.039083521,1.747767212,9.052476477,-0.786259542,-14.55725191,15.58015267,24.29
35:13.0,-0.69192428,2.085349646,9.193734375,0.748091603,2.511450382,-3.786259542,24.31
35:13.1,-2.485181323,2.463633508,9.916783276,1.290076336,-26.21374046,-12.35877863,24.29
35:13.3,-3.852270471,4.187458704,8.729259253,2.549618321,-41.9389313,-16.96183206,24.33
35:13.5,-1.280897888,2.078167041,8.901641772,-3.816793893,18.07633588,10.27480916,24.31
35:13.8,-0.708683691,2.200271326,9.385270508,1.900763359,-8.992366412,9.160305344,24.29
35:14.0,-0.974440076,2.047042419,8.868122949,6.114503817,-7.93129771,6.045801527,24.29
35:14.2,-1.158793604,2.363077039,9.409212524,8.465648855,-13.99236641,-10.80916031,24.29
35:14.4,-2.243366956,2.298433594,8.894459167,-17.73282443,59.07633588,5.687022901,24.29
35:14.6,-2.370259644,2.106897461,8.669404211,-6.496183206,19.5648855,4.114503817,24.29
35:14.7,-0.924161841,1.891419312,9.016563452,1.229007634,33.1221374,-0.702290076,24.29
35:14.8,-3.804386438,2.535459558,8.456320264,-3.282442748,19.3129771,7.389312977,24.29
35:15.0,-3.801992236,2.473210315,8.157045056,-2.564885496,11.66412214,10.15267176,24.27
35:15.1,-3.581725684,2.183511914,7.824251025,6.374045802,1.007633588,12.67938931,24.29
35:15.2,-3.347093921,2.873041992,9.050082275,-6.374045802,-5.93129771,12.35114504,24.29
35:15.4,-3.303998291,2.042254016,8.269572534,-15.51145038,5.328244275,6.236641221,24.31
35:15.5,-3.82114585,2.53785376,8.52335791,-12.72519084,-9.664122137,4.030534351,24.29
35:15.6,-3.495534424,2.020706201,8.688557825,-12.47328244,-6.893129771,-5.946564885,24.27
35:15.8,-3.311180896,1.436520996,8.334215979,-2.198473282,0.20610687,-3.916030534,24.29
35:15.9,-2.389413257,2.319981409,8.69574043,8.358778626,-7.282442748,10.55725191,24.31
35:16.0,-3.639186523,0.713472095,8.983044629,-7.145038168,-6.480916031,3.015267176,24.29
35:16.2,-3.016694092,2.377442249,8.6526448,-1.389312977,-5.809160305,-10.45038168,24.27
35:16.3,-2.37983645,2.257732166,7.886500269,-6.419847328,-1.473282443,1.06870229,24.27
35:16.4,-2.762908716,0.885854614,8.892064966,7.167938931,-2.114503817,-1.664122137,24.25
35:16.6,-3.210624426,2.015917798,9.236830005,9.496183206,-8.763358779,-2.984732824,24.29
35:16.7,-3.110067957,2.691082666,8.650250598,-8.282442748,-14.02290076,-5.992366412,24.31
35:16.8,-3.210624426,0.64882865,8.46589707,-0.091603053,3.564885496,-15.94656489,24.29
35:17.0,-2.987963672,2.070984436,8.350975391,1.603053435,6.34351145,-0.458015267,24.27
35:17.1,-2.631227625,2.245761157,8.75320127,-0.41221374,-7.122137405,6.580152672,24.27
35:17.2,-3.991134167,1.089361755,8.669404211,-2.961832061,23.76335878,21.80152672,24.25
35:17.3,-3.715800977,2.329558215,8.748412866,7.900763359,-22.1221374,0.229007634,24.27
35:17.5,-2.533065356,2.090138049,8.286331946,3.374045802,4.335877863,1.267175573,24.27
35:17.6,-3.445256189,2.468421912,8.394071021,-6.450381679,11.48091603,7.633587786,24.27
35:17.7,-3.198653418,2.106897461,8.482656482,-12.48854962,6.229007634,6.977099237,24.25
35:17.9,-3.991134167,1.994369983,8.583212952,4.908396947,1.977099237,4.816793893,24.27
35:18.0,-3.73495459,2.305616199,8.611943372,-2.076335878,-5.450381679,6.969465649,24.25
35:18.1,-3.416525769,2.181117712,7.972691528,-6.312977099,-2.778625954,7.58778626,24.25
35:18.3,-3.900154504,2.214636536,8.43716665,0.854961832,-0.27480916,1.374045802,24.29
35:18.4,-3.315969299,2.296039392,8.410830432,-0.083969466,-2.748091603,-0.549618321,24.25
35:18.5,-3.655945935,2.145204687,8.367734802,5.816793893,0.13740458,-7.297709924,24.25
35:18.7,-3.289633081,2.602497205,8.384494214,4.763358779,-1.641221374,-7.20610687,24.23
35:18.8,-3.703829968,2.396595862,8.429984045,0.290076336,-1.488549618,-4.572519084,24.25
35:18.9,-3.598485095,2.324769812,8.377311609,-3.213740458,4.564885496,-2.083969466,24.25
35:19.1,-3.940855933,2.434903088,8.276755139,-0.923664122,0.27480916,-2.679389313,24.23
35:19.2,-3.988739966,2.255337964,8.128314636,-0.458015267,-0.877862595,-1.312977099,24.23
35:19.3,-3.713406775,2.398990063,8.209717493,1.526717557,-3.259541985,-2.129770992,24.23
35:19.5,-3.948038538,2.358288635,8.236053711,-1.541984733,-1.381679389,1.335877863,24.23
35:19.6,-3.840299463,2.346317627,8.178592871,1.488549618,-5.06870229,0.465648855,24.27
35:19.7,-3.83551106,2.360682837,8.291120349,-0.511450382,-1.755725191,-0.442748092,24.27
35:19.9,-3.859453076,2.37983645,8.149862451,-1.900763359,-0.984732824,-0.755725191,24.25
35:20.0,-3.983951562,2.413355273,8.331821777,-1.34351145,-0.786259542,-0.572519084,24.23
35:20.1,-3.857058875,2.252943762,8.233659509,-1.908396947,-1.290076336,-0.442748092,24.25
35:20.3,-3.679887952,2.348711829,8.178592871,-0.603053435,-2.122137405,-0.465648855,24.25
35:20.4,-3.847482068,2.205059729,8.248024719,-0.72519084,-1.595419847,-0.160305344,24.21
35:20.5,-3.852270471,2.36547124,8.377311609,-0.427480916,-0.702290076,-0.267175573,24.27
35:20.6,-3.818751648,2.389413257,8.377311609,0.374045802,-1.045801527,0.27480916,24.21
35:20.8,-3.881000891,2.425326282,8.382100012,-0.190839695,-1.572519084,2.091603053,24.25
35:20.9,-3.857058875,2.367865442,8.444349255,-0.106870229,-1.557251908,1.458015267,24.25
35:21.0,-3.82114585,2.358288635,8.286331946,1.015267176,-2.351145038,-2.755725191,24.25
35:21.2,-3.914519714,2.535459558,8.180987073,0.79389313,-3.175572519,-1.236641221,24.23
35:21.3,-3.766079211,2.557007373,8.358157996,1.572519084,-3.564885496,-3.290076336,24.21
35:21.4,-3.543418457,2.355894434,8.054094385,1.58778626,0.267175573,-0.061068702,24.23
35:21.6,-3.610456104,2.738966699,8.406042029,0.374045802,-3.198473282,0.282442748,24.21
35:21.7,-3.751714001,2.554613171,8.281543542,-5.435114504,-0.198473282,1.152671756,24.23
35:21.8,-3.981557361,2.310404602,8.250418921,-2.816793893,-0.419847328,1.20610687,24.19
35:22.0,-3.725377783,2.303221997,8.10437262,-1.511450382,-3.778625954,0.381679389,24.23
35:22.1,-3.7493198,2.377442249,8.192958081,-2.13740458,-1.801526718,-0.267175573,24.23
35:22.2,-3.847482068,2.468421912,8.374917407,-2.366412214,0.190839695,-0.114503817,24.25
35:22.4,-3.57693728,2.305616199,8.123526233,-2.374045802,0.381679389,3.786259542,24.23
35:22.5,-3.854664673,2.355894434,8.362946399,-0.503816794,-3.099236641,2.114503817,24.23
35:22.6,-4.137180469,2.214636536,8.192958081,0.427480916,-1.053435115,-3.847328244,24.21
35:22.7,-3.80678064,2.403778467,8.355763794,-2.480916031,-3.305343511,-2.183206107,24.21
35:22.9,-3.696647363,2.3080104,8.228871106,-3.992366412,-2.694656489,0.442748092,24.21
35:23.0,-3.722983582,2.296039392,8.180987073,-0.519083969,-2.732824427,0.938931298,24.21
35:23.1,-4.134786267,2.209848132,8.458714465,2.442748092,-3.603053435,0.969465649,24.21
35:23.3,-3.713406775,2.272097375,8.348581189,-2.519083969,-6.900763359,0.282442748,24.21
35:23.4,-3.51947644,2.269703174,8.001421948,2.503816794,-1.526717557,2.702290076,24.19
35:23.5,-4.101267444,2.442085693,8.492233289,0.374045802,4.290076336,0.442748092,24.21
35:23.7,-3.900154504,2.418143677,8.544905725,-5.351145038,2.610687023,1.167938931,24.19
35:23.8,-3.974374756,2.157175696,8.10437262,-4.954198473,0.022900763,2.351145038,24.17
35:23.9,-3.857058875,2.142810486,8.255207324,-1.488549618,-3.65648855,1.572519084,24.15
35:24.1,-3.912125513,2.154781494,8.372523206,-2.442748092,-0.717557252,-0.122137405,24.17
35:24.2,-4.122815259,2.403778467,8.45153186,0.625954198,-3.603053435,-1.648854962,24.17
35:24.3,-3.718195178,2.221819141,8.262389929,-1.748091603,-1.167938931,0.076335878,24.17
35:24.5,-3.962403748,2.236184351,8.13310304,1.114503817,-2.770992366,0.366412214,24.15
35:24.6,-3.976768958,2.3080104,8.240842114,2.236641221,-4.030534351,-1.79389313,24.15
35:24.7,-3.703829968,2.269703174,8.135497241,0.633587786,-4.381679389,-1.229007634,24.17
35:24.8,-3.842693665,2.315193005,8.202534888,-1.778625954,-1.389312977,0.297709924,24.15
35:25.0,-3.54820686,2.324769812,8.353369592,1.564885496,-2.290076336,0.755725191,24.15
35:25.1,-3.931279126,2.245761157,8.310273962,-2.27480916,-4.290076336,0.221374046,24.17
35:25.2,-3.655945935,2.446874097,8.458714465,-1.900763359,-2.679389313,1.145038168,24.15
35:25.4,-3.80678064,2.355894434,8.293514551,-2.79389313,-1.870229008,3.099236641,24.19
35:25.5,-3.754108203,2.231395947,8.324639172,-7.969465649,-2.145038168,4.389312977,24.15
35:25.6,-3.739742993,1.857900488,8.159439258,-2.335877863,2.236641221,0.145038168,24.15
35:25.8,-3.82114585,2.178723511,8.458714465,-0.229007634,3.229007634,0.618320611,24.11
35:25.9,-4.094084839,2.035071411,8.310273962,-3.923664122,2.007633588,-0.664122137,24.15
35:26.0,-4.031835596,2.427720483,8.200140686,-3.79389313,3.977099237,2.244274809,24.17
35:26.2,-4.039018201,2.025494604,8.008604553,-1.572519084,1.809160305,2.86259542,24.15
35:26.3,-4.003105176,2.111685864,8.633491187,4.236641221,-3.702290076,0.145038168,24.17
35:26.4,-3.885789294,2.070984436,8.315062366,0.06870229,-2.778625954,0.435114504,24.17
35:26.6,-3.766079211,2.291250989,8.049305981,-1.595419847,0.839694656,2.244274809,24.17
35:26.7,-3.943250134,2.020706201,8.042123376,6.877862595,-1.396946565,-1.694656489,24.11
35:26.8,-4.443638281,2.161964099,8.350975391,4.86259542,-1.282442748,-3.145038168,24.15
35:27.0,-4.122815259,2.655169641,8.307879761,-9.603053435,0.618320611,-4.091603053,24.15
35:27.1,-3.811569043,2.33674082,8.152256653,-5.732824427,-2.480916031,-0.969465649,24.11
35:27.2,-3.979163159,2.051830823,7.951143713,-3.839694656,-0.893129771,5.076335878,24.11
35:27.4,-4.163516687,2.082955444,8.358157996,-0.541984733,-0.419847328,0.267175573,24.09
35:27.7,-3.976768958,2.513911743,8.413224634,0.625954198,-1.526717557,0.267175573,24.11
35:27.8,-4.137180469,2.147598889,8.312668164,0.244274809,-2.809160305,4.328244275,24.11
35:27.9,-4.070142822,2.159569897,7.994239343,-0.152671756,-1.374045802,3.198473282,24.11
35:28.1,-3.67749375,2.130839478,8.202534888,-4.923664122,-2.709923664,0.083969466,24.09
35:28.2,-4.374206433,2.583343591,8.173804468,-3.27480916,-1.099236641,-1.694656489,24.07
35:28.3,-3.557783667,2.190694519,8.341398584,-2.969465649,-0.175572519,-1.221374046,24.09
35:28.5,-3.950432739,2.104503259,8.216900098,-5.160305344,4.076335878,3.702290076,24.11
35:28.6,-4.386177441,2.027888806,8.322244971,-4.061068702,-1.717557252,-0.641221374,24.11
35:28.7,-3.696647363,1.805228052,8.068459595,-2.740458015,-3.030534351,-2.015267176,24.11
35:28.9,-4.235342737,2.106897461,8.281543542,-2.557251908,3.86259542,1.534351145,24.09
35:29.0,-4.249707947,1.994369983,7.984662537,1.442748092,-4.396946565,-1.572519084,24.11
35:29.1,-4.077325427,2.243366956,8.149862451,1.259541985,-2.152671756,2.267175573,24.09
35:29.3,-4.15393988,1.97521637,8.195352283,-3.351145038,0.977099237,8.541984733,24.09
35:29.4,-4.161122485,2.250549561,8.341398584,1.885496183,-5.961832061,0.893129771,24.11
35:29.5,-3.854664673,2.011129395,8.197746484,-0.396946565,-3.290076336,-0.908396947,24.11
35:29.7,-3.682282153,2.205059729,8.226476904,-4.854961832,-3.664122137,0.618320611,24.09
35:29.8,-3.993528369,2.018312,8.063671191,-3.900763359,-0.358778626,1.351145038,24.09
35:29.9,-4.067748621,2.090138049,8.389282617,1.061068702,-0.908396947,-0.122137405,24.05
35:30.1,-4.122815259,2.32237561,8.305485559,2.007633588,-3.854961832,-2.244274809,24.07
35:30.2,-3.979163159,2.142810486,8.413224634,-3.328244275,-1.381679389,0.816793893,24.09
35:30.3,-3.921702319,2.035071411,8.334215979,-3.374045802,-2.175572519,-0.58778626,24.09
35:30.5,-3.727771985,2.054225024,8.240842114,-0.595419847,-2.022900763,2.427480916,24.09
35:30.6,-4.010287781,1.956062756,8.384494214,-1.519083969,0.549618321,2.297709924,24.07
35:30.7,-4.048595007,2.032677209,8.322244971,-4.122137405,-0.946564885,1.58778626,24.05
35:30.9,-3.928884924,1.833958472,8.236053711,-3.755725191,-1.465648855,2.763358779,24.07
35:31.0,-4.043806604,1.908178723,8.128314636,-1.374045802,0.145038168,0.748091603,24.09
35:31.1,-4.017470386,1.881842505,8.288726147,-2.694656489,1.86259542,-1.099236641,24.09
35:31.2,-4.189852905,1.893813513,8.556876733,-2.106870229,-4.305343511,0.938931298,24.07
35:31.4,-3.53384165,1.800439648,8.183381274,-2.450381679,-13.18320611,-2.198473282,24.09
35:31.5,-3.888183496,1.67354696,8.152256653,-2.549618321,2.473282443,2.557251908,24.07
35:31.7,-3.873818286,1.635239734,8.489839087,3.816793893,-2.816793893,-3.664122137,24.05
35:31.8,-3.864241479,2.008735193,8.53772312,2.809160305,-10.15267176,-5.465648855,24.07
35:31.9,-3.232172241,1.96085116,8.307879761,-3.427480916,1.061068702,-1.175572519,24.09
35:32.0,-3.529053247,1.668758557,8.374917407,0.335877863,-0.381679389,-2.160305344,24.07
35:32.2,-3.359064929,1.778891833,8.511386902,-4.694656489,4.603053435,2.435114504,24.07
35:32.3,-3.6056677,1.613691919,8.621520178,-0.389312977,-10.17557252,-0.679389313,24.05
35:32.4,-3.811569043,1.723825195,8.461108667,-6.198473282,10.00763359,1.503816794,24.07
35:32.6,-3.72058938,2.229001746,8.963891016,-8.969465649,-5.282442748,3.72519084,24.09
35:32.7,-3.957615344,1.436520996,8.391676819,-12.61832061,4.450381679,9.290076336,24.07
35:32.8,-3.701435767,1.434126794,8.281543542,-2.870229008,-6.34351145,3.389312977,24.05
35:33.0,-3.787627026,1.343147131,8.429984045,0.648854962,7.091603053,1.183206107,24.07
35:33.1,-3.66312854,1.577778894,8.597578162,-0.72519084,2.282442748,-0.229007634,24.07
35:33.2,-3.787627026,1.589749902,8.549694128,1.557251908,0.381679389,-0.312977099,24.05
35:33.4,-3.699041565,1.606509314,8.49462749,-2.885496183,0.679389313,2.419847328,24.05
35:33.5,-3.861847278,1.455674609,8.350975391,-2.923664122,0.419847328,3.832061069,24.07
35:33.6,-3.842693665,1.486799231,8.717288245,0.679389313,0.083969466,1.488549618,24.07
35:33.8,-3.979163159,1.379060156,8.463502869,-0.06870229,-1.152671756,0.099236641,24.05
35:33.9,-3.960009546,1.592144104,8.312668164,-0.732824427,1.259541985,0.335877863,24.07
35:34.0,-4.082113831,1.608903516,8.274360938,4.312977099,-0.610687023,-2.541984733,24.07
35:34.2,-4.185064502,1.721430994,8.372523206,1.152671756,1.083969466,-0.496183206,24.05
35:34.4,-4.180276099,1.647210742,8.226476904,3.435114504,-2.923664122,-3.435114504,24.05
35:34.5,-3.900154504,1.941697546,8.547299927,2.381679389,-0.580152672,-3.709923664,24.07
35:34.6,-4.24013114,1.829170068,8.03254657,4.129770992,-2.748091603,-4.34351145,24.03
35:34.8,-4.347870215,1.544260071,8.219294299,7.526717557,-0.442748092,-10.28244275,24.05
35:34.9,-4.431667273,1.697488977,8.010998755,10.35877863,1.251908397,-20.54198473,24.05
35:35.0,-3.948038538,2.401384265,8.271966736,6.595419847,-7.290076336,-12.58778626,24.07
35:35.2,-4.230554333,2.128445276,8.087613208,4.351145038,-9.702290076,-3.473282443,24.07
35:35.3,-4.082113831,1.965639563,8.094795813,0.335877863,-1.381679389,2.961832061,24.05
35:35.4,-4.058171814,2.207453931,8.269572534,-0.648854962,-0.755725191,3.870229008,24.07
35:35.6,-4.13957467,1.90339032,8.176198669,-0.229007634,0.679389313,5.374045802,24.03
35:35.7,-4.436455676,2.00394679,8.374917407,-1.351145038,-1.061068702,1.946564885,24.03
35:35.8,-4.065354419,2.363077039,7.999027747,-3.694656489,1.450381679,0.839694656,24.05
35:36.0,-4.185064502,1.869871497,8.080430603,1.366412214,-1.870229008,5.213740458,24.03
35:36.1,-4.058171814,2.080561243,8.52335791,-0.694656489,-5.083969466,2.450381679,24.05
35:36.2,-4.261678955,2.049436621,8.034940771,-4.595419847,2.129770992,-0.503816794,24.03
35:36.4,-4.103661646,2.011129395,7.977479932,2.076335878,-5.824427481,0.885496183,24.05
35:36.5,-4.039018201,2.181117712,8.202534888,-1.427480916,-4.847328244,3.93129771,24.03
35:36.6,-4.134786267,1.939303345,7.967903125,0.312977099,-0.007633588,2.572519084,24.05
35:36.8,-3.902548706,2.219424939,8.327033374,5.312977099,-5.190839695,-2.824427481,24.03
35:36.9,-3.976768958,2.298433594,8.322244971,1,-3.251908397,-2,24.03
35:37.0,-3.69185896,2.243366956,8.111555225,5.106870229,-4.839694656,-3.106870229,24.01
35:37.2,-3.639186523,3.047818713,8.511386902,10.11450382,7.938931298,2.732824427,24.05
35:37.4,-4.113238452,2.559401575,8.427589844,7.450381679,1.992366412,-2.832061069,24.03
35:37.6,-3.368641736,2.822763757,7.948749512,3.396946565,2.488549618,0.625954198,24.03
35:37.7,-4.264073157,3.023876697,8.248024719,-2.58778626,5.030534351,-7.045801527,23.99
35:37.9,-4.438849878,2.894589807,7.979874133,-7.320610687,13.77862595,-4.801526718,24.01
