Time,Acc-X,Acc-Y,Acc-Z,Gyro-X,Gyro-Y,Gyro-Z,Ambient Temp
17:04.7,0,0,0,1.099236641,5.129770992,57.86259542,23.09
17:04.8,-7.599196069,1.881842505,5.415684155,-2.259541985,-0.114503817,3.717557252,23.09
17:04.9,-7.146691956,2.50912334,4.7596729,0.519083969,1.534351145,-1.801526718,23.11
17:05.1,-7.144297754,2.087743848,5.322310291,-1.72519084,-0.900763359,2.801526718,23.07
17:05.2,-8.334215979,2.135627881,5.202600208,-1.633587786,-4.877862595,0.709923664,23.09
17:05.3,-6.766013892,2.039859814,5.07570752,-2.885496183,0.977099237,4.450381679,23.07
17:05.5,-7.007828259,2.104503259,4.848258362,-3.030534351,2.748091603,2.152671756,23.11
17:05.6,-9.538499414,1.71664259,4.525041138,5.374045802,0.732824427,-9.832061069,23.11
17:05.7,-7.105990527,2.578555188,5.298368274,2.671755725,-6.167938931,-12.44274809,23.13
17:05.9,-7.651868506,2.468421912,5.027823486,-1.519083969,-7.167938931,-6.618320611,23.09
17:06.0,-7.951143713,2.513911743,5.097255334,9.893129771,-4.984732824,0.740458015,23.11
17:06.1,-7.661445313,2.592920398,4.999093066,12.65648855,-13.00763359,-8.786259542,23.07
17:06.3,-7.467514978,2.487575525,4.948814832,14.67175573,-2.450381679,-6.129770992,23.13
17:06.4,-7.259219434,2.521094348,5.257666846,11.1221374,-4.541984733,-2.786259542,23.11
17:06.5,-7.043741284,3.110067957,5.233724829,9.34351145,14.98473282,-14.47328244,23.07
17:06.6,-8.401253625,2.454056702,5.669469531,-0.900763359,-1.41221374,-14.64122137,23.11
17:06.8,-8.298302954,1.766920825,4.319139795,-5.748091603,16.77099237,-5.877862595,23.09
17:06.9,-8.298302954,2.248155359,5.894524487,0.671755725,-19.97709924,3.679389313,23.11
17:07.0,-6.344634399,1.455674609,5.935225916,-3.167938931,8.633587786,-15,23.13
17:07.2,-8.583212952,2.276885779,5.746083984,10.65648855,-50.53435115,1.106870229,23.09
17:07.3,-4.683058447,1.790862842,7.132326746,4.641221374,-42.16030534,21.38931298,23.13
17:07.4,-5.578489868,2.743755103,7.122749939,2.58778626,-4.984732824,5.480916031,23.11
17:07.6,19.61270145,-1.841141077,9.624690674,13.50381679,-24.42748092,-52.96946565,23.09
17:07.7,-4.36941803,1.379060156,6.962338428,-0.503816794,4.236641221,29.91603053,23.11
17:07.8,-4.97515105,1.83156427,7.532158423,17.54961832,-36.41984733,21.9389313,23.09
17:08.0,-4.953603235,1.790862842,7.48427439,5.748091603,-17.42748092,11.52671756,23.09
17:08.1,-8.250418921,1.987187378,7.18260498,6.213740458,-14.94656489,10.11450382,23.09
17:08.2,-5.058948108,1.570596289,6.933608008,23.59541985,-12.94656489,4.93129771,23.11
17:08.4,-5.130774158,2.348711829,6.344634399,37.82442748,78.54198473,1.816793893,23.13
17:08.5,-7.38371792,4.053383411,7.532158423,30.58015267,16.54961832,12.57251908,23.13
17:08.6,-6.80671532,3.852270471,5.758054993,8.20610687,-17.77099237,27.01526718,23.11
17:08.8,-6.102820032,3.560177869,4.548983154,20.46564885,-18.96946565,20.22137405,23.11
17:08.9,-5.63834491,4.637568616,5.216965417,21.66412214,-18.36641221,28.96183206,23.11
17:09.0,-5.185840796,5.513846423,5.99986936,19.17557252,-12.54198473,25.96946565,23.11
17:09.1,-4.414907861,5.240907434,5.442020374,26.95419847,-40.88549618,6.007633588,23.11
17:09.2,-3.050212915,5.868188269,5.6239797,41.16030534,-11.11450382,-11.01526718,23.09
17:09.4,-4.687846851,6.715735657,4.819527942,41.8778626,-31.19083969,-25.02290076,23.09
17:09.5,-4.015076184,7.630320691,4.781220715,33.60305344,-22.89312977,-41.36641221,23.09
17:09.6,-4.865017773,6.495469104,4.29759198,41.95419847,-26.45801527,-36.77099237,23.09
17:09.7,-5.128379956,6.679822632,3.124433167,48,-47.4351145,-46.22900763,23.09
17:09.8,-7.781155396,8.06127699,2.753331909,71.63358779,-76.15267176,-20.74045802,23.11
17:10.0,-5.961562134,7.31189187,2.087743848,59.13740458,-100.1755725,-43.71755725,23.11
17:10.1,-6.138733057,6.519411121,2.42293208,37.32061069,-90.20610687,-26.15267176,23.09
17:10.2,-5.056553906,8.06127699,2.767697119,24.42748092,-95.70229008,-20.46564885,23.11
17:10.3,-2.434903088,9.825803613,4.041412402,31.44274809,15.70229008,-0.091603053,23.13
17:10.4,-1.637633936,8.441955054,3.495534424,3.167938931,-22.23664122,-24.41984733,23.09
17:10.6,-2.370259644,6.969521033,3.385401147,0.473282443,103.9312977,27.98473282,23.07
17:10.7,-4.611232397,6.586448767,3.457227197,3.328244275,-76.72519084,5.801526718,23.09
17:10.8,-3.936067529,8.717288245,1.307234106,40.16793893,-33.17557252,49.64122137,23.09
17:10.9,-4.161122485,10.28549033,0.902614026,41.67175573,-89.36641221,44.90839695,23.11
17:11.1,-3.193865015,8.947131604,1.26892688,32.84732824,-66.57251908,-15.76335878,23.09
17:11.2,-2.813186951,13.64694946,0.670376465,21.00763359,-82.52671756,-19.90839695,23.11
17:11.3,-2.384624854,7.666233716,0.876277808,34.13740458,-76.95419847,-77.53435115,23.09
17:11.4,-0.77811554,8.856151941,1.233013855,37.47328244,-93,-50.16030534,23.09
17:11.5,-2.446874097,8.178592871,1.977610571,39.89312977,-95,-27.84732824,23.09
17:11.7,-2.042254016,10.02452235,2.085349646,23.09160305,-31.40458015,13.36641221,23.09
17:11.8,-1.71664259,10.46266125,0.268150586,-12.0610687,-34.6259542,17.19083969,23.09
17:11.9,-3.330334509,8.923189587,-0.366312854,-9.450381679,30.69465649,7.610687023,23.09
17:12.0,-3.268085266,10.77151327,1.323993518,13.86259542,5.824427481,-2.198473282,23.09
17:12.2,-2.95683905,8.228871106,3.22977804,-6.893129771,-6.129770992,-19.00763359,23.09
17:12.3,-2.329558215,8.178592871,3.165134595,-28.49618321,24.70229008,1.65648855,23.13
17:12.4,-2.798821741,8.820238916,2.080561243,-26.70992366,47.57251908,41.26717557,23.09
17:12.5,-3.12922157,9.533711011,2.145204687,-32.79389313,20.29770992,1.465648855,23.11
17:12.6,-2.772485522,5.612008691,2.286462585,-8.312977099,47.57251908,33.54198473,23.09
17:12.8,-4.659116431,8.757989673,1.783680237,11.18320611,-93.78625954,29.24427481,23.09
17:12.9,-2.865859387,9.406818323,2.636016028,13.66412214,-38.07633588,-65.90076336,23.11
17:13.0,-2.995146277,9.270348828,3.184288208,-2.519083969,-13.89312977,-90.24427481,23.11
17:13.1,-1.781286035,8.125920435,2.97120426,6.671755725,-36.65648855,-57.84732824,23.09
17:13.2,-2.401384265,8.161833459,4.199429712,0.961832061,-20.80916031,-2.061068702,23.11
17:13.4,-2.231395947,7.757213379,4.158728284,0.122137405,29.94656489,34.30534351,23.11
17:13.5,-3.24414325,7.635109094,3.361459131,3.824427481,12.01526718,28.6870229,23.15
17:13.6,-3.912125513,7.517793213,2.906560815,15.17557252,1.847328244,38.19847328,23.11
17:13.7,-3.64876333,8.829815723,2.324769812,-0.305343511,27.40458015,11.77862595,23.15
17:13.8,-3.646369128,9.239224207,2.260126367,9.267175573,14.6259542,-2.969465649,23.13
17:14.0,-3.177105603,8.010998755,1.766920825,21.13740458,-41.67175573,-0.580152672,23.13
17:14.1,-2.427720483,9.083601099,1.22583125,26.97709924,-14.80916031,-10.05343511,23.13
17:14.2,-2.806004346,9.993397729,1.589749902,9.396946565,-18.19847328,1.809160305,23.15
17:14.3,-3.14358678,9.533711011,1.386242761,-4.519083969,24.35877863,2.916030534,23.15
17:14.4,-2.128445276,9.141061938,1.177947217,-29.29007634,31.93129771,-2.381679389,23.11
17:14.6,-3.428496777,9.789890588,0.811634363,-32.3740458,38.71755725,1.679389313,23.13
17:14.7,-2.652775439,8.887276563,1.352723938,-7.832061069,42.10687023,15.99236641,23.13
17:14.8,-4.24013114,8.60954917,2.707842078,-8.65648855,-0.480916031,10.25954198,23.15
17:14.9,-3.397372156,8.341398584,3.05739552,-9.427480916,2.992366412,-3.129770992,23.13
17:15.0,-2.588131995,8.243236316,3.339911316,-4.229007634,-17.41984733,-2.458015267,23.13
17:15.2,-2.48039292,7.580042456,2.700659473,1.534351145,4.595419847,15.29770992,23.15
17:15.3,-3.303998291,8.836998328,2.518700146,19.09160305,-25.74045802,13.59541985,23.13
17:15.4,-2.779668127,8.916006982,2.231395947,5.992366412,-20.30534351,-12.03053435,23.13
17:15.5,-3.153163586,9.294290845,1.553836877,2.694656489,3.65648855,-15.20610687,23.11
17:15.6,-2.95683905,8.793902698,1.216254443,5.687022901,-22.95419847,-15.16793893,23.15
17:15.8,-1.201889233,9.12909093,1.426944189,7.648854962,-13.94656489,-2.778625954,23.13
17:15.9,-2.987963672,8.911218579,1.302445703,8.229007634,-19.72519084,1.34351145,23.13
17:16.0,-3.189076611,8.884882361,1.345541333,7.824427481,-17.19847328,1.618320611,23.15
17:16.1,-3.181894006,9.208099585,1.338358728,15.01526718,-75.99236641,-3.664122137,23.13
17:16.2,-3.308786694,9.07163009,1.910572925,2.549618321,-38.78625954,-12.87022901,23.17
17:16.4,-1.517923853,9.198522778,3.306392493,-13.46564885,-45.64885496,-19.85496183,23.15
17:16.5,-3.299209888,8.904035974,2.504334937,-17.76335878,-37.10687023,-24.40458015,23.15
17:16.6,-2.272097375,8.372523206,2.291250989,-18.7480916,-1.236641221,-20.28244275,23.15
17:16.7,-2.178723511,7.824251025,2.154781494,4.221374046,19.05343511,4.351145038,23.13
17:16.8,-2.410961072,8.528146313,3.667916943,19.30534351,-24.78625954,26.55725191,23.15
17:17.0,-2.738966699,8.602366565,2.621650818,19.81679389,-12.03053435,27.39694656,23.15
17:17.1,-3.268085266,8.746018665,3.009511487,7.984732824,7.450381679,16.32061069,23.15
17:17.2,-2.801215942,9.050082275,2.765302917,5.244274809,-6.167938931,10.75572519,21.23
17:17.3,-2.736572498,8.990227234,2.33674082,-6.465648855,10.22137405,-3.732824427,23.17
17:17.4,-2.516305945,8.925583789,2.487575525,-3.244274809,-1.229007634,-2.824427481,23.15
17:17.6,-2.42293208,9.064447485,2.214636536,-2.641221374,-0.549618321,-0.244274809,23.17
17:17.7,-2.207453931,8.786720093,2.288856787,-0.358778626,-4.27480916,2.312977099,23.15
17:17.8,-2.243366956,9.10036051,2.413355273,-0.946564885,-1.595419847,1.259541985,23.21
17:17.9,-2.288856787,8.954314209,2.355894434,-0.893129771,-2.282442748,1.854961832,23.19
17:18.0,-2.375048047,8.963891016,2.497152332,-6.045801527,1.404580153,0.946564885,23.17
17:18.2,-2.217030737,8.918401184,2.396595862,0.381679389,4.717557252,1.419847328,23.17
17:18.3,-2.372653845,8.880093958,2.310404602,3.503816794,-2.175572519,2.198473282,23.15
17:18.4,-2.667140649,8.892064966,2.410961072,0.251908397,3.72519084,-1.687022901,23.19
17:18.5,-2.257732166,8.920795386,2.384624854,0.358778626,-3.244274809,-3.832061069,23.15
17:18.6,-2.185906116,9.011775049,2.197877124,3.320610687,-2.167938931,-0.175572519,23.17
17:18.8,-2.171540906,9.009380847,1.905784521,4.65648855,1.801526718,3.358778626,23.19
17:18.9,-2.636016028,9.038111267,2.240972754,2.320610687,2.145038168,1.977099237,23.19
17:19.0,-2.655169641,9.011775049,2.37983645,2.236641221,-6.236641221,-2.65648855,23.19
17:19.1,-2.348711829,8.870517151,2.303221997,3.290076336,-13.5648855,-8.396946565,23.17
17:19.2,-2.200271326,9.176974963,2.545036365,0.465648855,-8.290076336,-6.267175573,23.21
17:19.4,-2.415749475,8.817844714,2.674323254,-6.778625954,4.030534351,1.549618321,23.19
17:19.5,-2.439691492,8.779537488,2.528276953,-11.47328244,22.29007634,8.557251908,23.19
17:19.6,-2.822763757,8.674192615,1.980004773,-9.267175573,25.03816794,4.732824427,23.21
17:19.7,-3.105279553,8.532934717,1.496376038,3.221374046,56.04580153,-4.65648855,23.19
17:19.8,-3.031059302,8.097190015,1.781286035,13.83969466,27.81679389,8.992366412,23.21
17:20.0,-2.604891406,9.387664709,1.80283385,7.549618321,21.22137405,48.67938931,23.21
17:20.1,-3.184288208,12.05480536,2.128445276,-6.007633588,24.95419847,54.75572519,23.21
17:20.2,-4.003105176,8.516175305,2.35110603,-27.06870229,32.26717557,23.33587786,23.21
17:20.3,-1.470039819,8.947131604,1.541865869,-57.35114504,78.92366412,-71.51145038,23.21
17:20.4,-1.625662927,6.768408093,2.015917798,-41.30534351,55.93129771,-59.67938931,23.19
17:20.6,-0.890643018,6.105214233,2.758120313,-10.61832061,43.12977099,16.80916031,23.17
17:20.7,-3.402160559,10.57518873,2.89937821,14.77862595,23.07633588,97.29770992,23.21
17:20.8,-6.440402466,9.473855969,2.264914771,19.16030534,4.007633588,76.0610687,23.19
17:20.9,-4.807556934,9.090783704,1.388636963,-9.58778626,-54.32061069,-53.45038168,23.17
17:21.1,-2.482787122,9.18655177,0.337582434,-25.69465649,-69.18320611,-102.2671756,23.19
17:21.2,-1.127668982,8.252813123,0.445321509,-24.28244275,-25.89312977,-89.00763359,23.21
17:21.3,-1.036689319,13.8456682,1.580173096,-20.16030534,42.98473282,0.458015267,23.21
17:21.4,-3.016694092,7.534552625,3.586514087,-8.213740458,2.20610687,4.824427481,23.21
17:21.5,-1.651999146,7.955932117,2.89937821,-11.86259542,95.4351145,86.32061069,23.21
17:21.7,-4.244919543,8.362946399,0.768538733,13.60305344,85.79389313,111.2519084,23.19
17:21.8,-5.55215365,10.9534726,1.618480322,6.908396947,92.63358779,56.98473282,23.21
17:21.9,-7.465120776,10.55603512,2.061407629,-4.778625954,24.88549618,-23.78625954,23.19
17:22.0,-4.003105176,9.897629663,0.876277808,-15.70992366,-201.4961832,-78.02290076,23.19
17:22.2,-1.256955872,8.602366565,0.268150586,-63.89312977,-2.961832061,-86.52671756,23.19
17:22.3,-2.248155359,10.92474218,-0.205901343,-30.19847328,22.05343511,-45.03053435,23.19
17:22.4,-1.953668555,5.430049365,4.089296436,32.4351145,19.52671756,25.41221374,23.17
17:22.6,-1.065419739,8.161833459,2.980781067,16.71755725,8.465648855,57.9389313,23.19
17:22.7,-4.556165759,7.814674219,3.019088293,3.091603053,51.84732824,122.5954198,23.17
17:22.8,-5.224148022,9.801861597,1.941697546,16.90076336,-17.90076336,25.93129771,23.21
17:23.0,-6.483498096,11.14500873,2.286462585,26.27480916,-98.36641221,-28.88549618,23.19
17:23.1,-3.80678064,10.42435403,0.452504114,-19.57251908,-122.129771,-76.71755725,23.19
17:23.2,-2.102109058,10.31900916,-0.627280835,-40.72519084,-51.06870229,-131.8244275,23.21
17:23.4,-1.513135449,12.30619653,-0.770932935,-12.85496183,-45.3129771,-91.14503817,23.19
17:23.5,3.174711401,4.108450049,6.270414148,11.96183206,-82.65648855,10.52671756,23.21
17:23.6,-2.042254016,7.685387329,4.970362646,23.40458015,63.44274809,116.3740458,23.17
17:23.8,-3.722983582,7.474697583,4.927267017,3.305343511,28.67175573,106.7099237,23.21
17:23.9,-4.122815259,8.394071021,4.687846851,12.48091603,33.77099237,37.74045802,23.19
17:24.0,-6.117185242,10.22324109,3.373430139,26.4351145,-19.09923664,-22.57251908,23.21
17:24.2,-3.270479468,8.813056311,1.886630908,29.92366412,-107.8320611,-91.7480916,23.23
17:24.3,-1.752555615,9.227253198,1.314416711,-0.145038168,-28.48091603,-114.4656489,23.23
17:24.4,-1.374271753,10.88882915,2.217030737,-4.106870229,-21.17557252,-66.52671756,23.23
17:24.6,-0.423773694,7.852981445,4.477157104,18.95419847,43.64885496,53.90839695,23.23
17:24.7,-1.158793604,7.287949854,1.043871924,1.473282443,44.19083969,88.52671756,23.21
17:24.8,-4.170699292,7.491456995,1.683123767,8.244274809,113.4732824,98.58015267,23.23
17:24.9,-3.682282153,9.945513696,2.152387292,11.09160305,62.22137405,59.9389313,23.23
17:25.1,-7.599196069,10.64701478,3.213018628,10.24427481,-28.6259542,-20.20610687,23.23
17:25.2,-3.82114585,10.01494554,1.405396375,-15.36641221,-60.16793893,-102.8167939,23.27
17:25.3,-1.644816541,9.026140259,0.746990918,-29.09923664,-19.58778626,-125.4656489,23.23
17:25.5,-0.974440076,8.135497241,0.624886633,-13.39694656,-8.748091603,-46.61832061,23.27
17:25.6,-1.074996545,11.88481704,1.905784521,-2.229007634,28.22900763,114.9007634,23.29
17:25.7,-3.375824341,9.686939917,2.600103003,-10.61832061,10.65648855,83.71755725,23.27
17:25.9,-3.495534424,7.855375647,1.007958899,-10.76335878,123.6641221,79.19847328,23.27
17:26.0,-5.173869788,9.054870679,1.726219397,3.572519084,49.04580153,44.03816794,23.27
17:26.1,-5.418078357,8.781931689,2.628833423,11.83206107,16.61068702,-46.04580153,23.31
17:26.3,-2.746149304,9.380482104,2.027888806,-16.19847328,-12.75572519,-96.45801527,23.29
17:26.4,-1.869871497,9.107543115,1.410184778,-43.20610687,17.47328244,-90.80152672,23.27
17:26.5,-1.113303772,10.04607017,0.936132849,-54.41984733,40.26717557,-39.29770992,23.27
17:26.6,-1.97521637,8.846575134,2.346317627,-44.67175573,80.47328244,84.63358779,23.29
17:26.7,-1.781286035,9.629479077,2.418143677,-51.19083969,63.08396947,94,23.31
17:26.9,-2.341529224,8.288726147,0.107739075,-54.74045802,152.4961832,117.8396947,23.29
17:27.0,-4.876988782,9.449913953,-0.500388147,-11.08396947,127.8625954,103.9083969,23.29
17:27.1,-5.597643481,8.324639172,1.853112085,11.80152672,64.59541985,13.33587786,23.29
17:27.2,-4.563348364,11.50174478,2.463633508,-14.20610687,51.09923664,-58.83206107,23.31
17:27.3,-1.565807886,9.665392102,3.390189551,-48.77099237,31.92366412,-97.93129771,23.31
17:27.5,-0.907402429,9.617508069,2.059013428,-76.05343511,87.42748092,-75.28244275,23.31
17:27.6,-1.007958899,9.885658655,1.613691919,-94,70.03053435,53.05343511,23.31
17:27.7,-1.94648595,8.379705811,0.344765039,-88.14503817,122.3740458,108.9847328,23.29
17:27.8,-2.092532251,9.02853446,-1.403002173,-98.20610687,153.1221374,135.6564885,23.29
17:28.0,-5.39413634,8.650250598,0.51954176,-9.160305344,108.4885496,114.1068702,23.31
17:28.1,-6.141127258,12.57674132,1.620874524,24.19847328,70.5648855,19.51908397,23.31
17:28.3,-5.477933398,9.318232861,2.375048047,21.32824427,-86.42748092,-64.94656489,23.31
17:28.4,-1.91775553,10.26633672,1.826775867,-7.129770992,-21.66412214,-103.3740458,23.33
17:28.5,-1.314416711,8.130708838,0.842758984,-14.35877863,-22.39694656,-97.19847328,23.33
17:28.7,-1.438915198,9.356540088,1.956062756,12.18320611,5.366412214,79.57251908,23.33
17:28.8,-3.531447449,7.807491614,2.760514514,-8.526717557,-2.106870229,49.67175573,23.27
17:28.9,-1.719036792,8.631096985,1.379060156,-28.27480916,97.50381679,23.29770992,23.33
17:29.1,-3.751714001,6.586448767,0.852335791,-10.11450382,66.13740458,46.24427481,23.29
17:29.2,-6.354211206,8.985438831,2.236184351,3.770992366,22.32061069,32.50381679,23.31
17:29.3,-5.896918689,10.91755957,2.037465613,20.22137405,-10.9389313,11.8778626,23.33
17:29.5,-4.192247107,10.83855092,0.392649072,13.55725191,-163.3740458,-16.05343511,23.35
17:29.6,-3.670311145,9.076418494,0.957680664,-18.09160305,-88.67175573,-35.46564885,23.33
17:29.7,-1.582567297,10.49378588,-1.134851587,-25.89312977,-27.69465649,-39.77862595,23.31
17:29.8,-2.667140649,9.270348828,0.251391174,41.73282443,-40.0610687,-2.236641221,23.31
17:30.0,-1.031900916,9.847351428,1.8746599,26.15267176,-109.3053435,-78.38931298,23.33
17:30.1,-1.616086121,7.105990527,3.306392493,20.83969466,19.45038168,-17.66412214,23.31
17:30.2,-1.36948335,6.861781958,2.025494604,18.34351145,-4.519083969,42.79389313,23.35
17:30.4,-3.572148877,14.41309399,1.965639563,31.11450382,48.89312977,116.2824427,23.33
17:30.5,-5.803544824,10.16099185,2.60967981,2.34351145,-100.519084,0.877862595,23.35
17:30.6,-2.983175269,8.779537488,1.572990491,-21.61832061,-28.90839695,-76.02290076,23.33
17:30.8,-1.462857214,8.180987073,0.328005627,-33.64122137,-12.64885496,-69.55725191,23.33
17:30.9,-1.843535278,11.00375083,0.746990918,-13.05343511,17.25954198,6.770992366,23.33
17:31.0,-1.78846864,9.433154541,2.777273926,7.152671756,3.381679389,-11.93129771,23.35
17:31.2,-2.080561243,6.490680701,2.250549561,-11.51908397,97.48854962,42.48091603,23.35
17:31.4,-3.900154504,10.91755957,1.836352673,14.32061069,31.6259542,81.99236641,23.37
17:31.6,-3.936067529,10.0963484,1.534683264,-31.22900763,-59.02290076,-75.22900763,23.35
17:31.8,-1.252167468,8.40843623,0.483628735,-28.19083969,5.694656489,-78.77099237,23.37
17:32.0,-2.710236279,7.103596326,3.588908289,4.618320611,31.32824427,51.77099237,23.35
17:32.2,-1.022324109,8.10437262,1.587355701,-31.87022901,84.2519084,56.73282443,23.35
17:32.4,-4.35505282,10.33576857,0.849941589,-12.70229008,86.16030534,125.4732824,23.35
17:32.6,-5.726930371,10.44829604,3.270479468,-14.17557252,-47.78625954,-71.3129771,23.37
17:32.8,-1.936909143,8.353369592,0.373495459,-23.79389313,-17.6870229,-108.6946565,23.39
17:33.0,-1.34075293,10.40998882,1.185129822,-0.473282443,-33.38931298,-27.12977099,23.39
17:33.1,0.392649072,10.97023201,0.442927307,-6.27480916,97.55725191,113.2519084,23.37
17:33.2,-1.726219397,10.39562361,-0.275333191,8.580152672,51.49618321,126.8244275,23.37
17:33.4,-6.363788013,9.181763367,0.316034619,37.90839695,28.14503817,102.9923664,23.37
17:33.5,-2.980781067,10.40520042,1.74537301,41.77099237,-22.18320611,-21.7480916,23.39
17:33.6,-0.378283862,10.35013378,3.327940308,0.122137405,-70.45038168,-5.167938931,23.39
17:33.8,1.453280408,8.463502869,0.167594116,-45.91603053,-28.74045802,-16.15267176,23.35
17:33.9,-0.596156213,8.384494214,-1.335964526,-42.78625954,-3.122137405,-30.50381679,23.37
17:34.0,-0.280121594,11.83932721,-0.488417139,-13.22137405,-5.480916031,-69.02290076,23.39
17:34.2,1.007958899,8.317456567,3.280056274,12.85496183,-29.75572519,-75.3740458,23.39
17:34.3,0.308852014,7.132326746,1.628057129,-22.22137405,61.33587786,-0.748091603,23.37
17:34.4,-2.688688464,7.103596326,1.434126794,-6.236641221,30.11450382,43.5648855,23.37
17:34.6,-2.980781067,10.65898579,1.446097803,8.618320611,51.58015267,54.86259542,23.37
17:34.7,-5.049371301,11.31739125,2.758120313,-25.21374046,14.96946565,-27.03816794,23.37
17:34.8,-2.434903088,10.54406411,1.884236707,-55.04580153,64.02290076,-122.740458,23.39
17:35.0,0.047884033,8.377311609,-1.936909143,-114.2977099,67.91603053,-79.38931298,23.37
17:35.1,-2.114080066,7.824251025,0.517147559,-87.79389313,82.42748092,71.19847328,23.41
17:35.2,-3.344699719,12.73715283,-0.849941589,-149.5343511,124.4503817,169.7938931,23.37
17:35.4,-5.959167932,7.546523633,-0.009576807,-44.22137405,120.6717557,126.1068702,23.43
17:35.5,-3.892971899,8.892064966,-0.557848987,-35.05343511,149.4580153,80.71755725,23.39
17:35.6,-4.027047192,9.643844287,1.908178723,3.847328244,106.7251908,10.3129771,23.39
17:35.8,-3.945644336,8.374917407,2.142810486,-5.221374046,41.76335878,26.17557252,23.39
17:35.9,-3.296815686,9.952696301,0.727837305,-26.58015267,40.16030534,23.29770992,23.37
17:36.1,-3.189076611,9.452308154,0.538695374,-0.633587786,18.52671756,-23.87022901,23.37
17:36.3,-2.765302917,8.734047656,1.508347046,14.54198473,-24.22900763,-6.007633588,23.37
17:36.5,-3.059789722,9.20091698,1.486799231,2.610687023,-21.5648855,-1.809160305,23.37
17:36.7,-2.904166614,9.217676392,1.335964526,-0.267175573,-20.54198473,-12.6870229,23.37
17:36.9,-2.619256616,8.925583789,1.26892688,0.13740458,-7.320610687,-2,23.41
17:37.1,-3.040636108,8.880093958,1.338358728,2.007633588,-5.145038168,8.969465649,23.41
17:37.3,-5.916072302,9.471461768,1.680729565,3.374045802,-19.17557252,-19.70229008,23.39
17:37.5,-5.094861133,8.899247571,1.434126794,11.24427481,-121.6030534,-115.4580153,23.37
17:37.6,-6.991068848,7.666233716,1.570596289,1.290076336,-69.19083969,-90.99236641,23.43
17:37.8,-7.184999182,6.622361792,4.247313745,3.038167939,-207.2442748,-112.221374,23.39
17:38.0,0.102950671,3.512293835,8.896853369,-53.60305344,-75.40458015,-53.15267176,23.41
17:38.2,1.905784521,0.804451758,8.145074048,-25.41221374,-20.41221374,3.381679389,23.41
17:38.4,0.957680664,2.111685864,9.131485132,-4.358778626,-12.61068702,5.671755725,23.41
17:38.5,2.073378638,1.364694946,9.378087903,-7.58778626,-10.85496183,-0.114503817,23.37
17:38.7,1.635239734,1.331176123,9.617508069,-13.22137405,-2.748091603,1.664122137,23.39
17:38.9,2.106897461,1.276109485,10.39801781,-9.702290076,-9.450381679,-7.091603053,23.35
17:39.1,2.39420166,0.167594116,8.987833032,-25.39694656,6.908396947,-8.58778626,23.43
17:39.3,2.557007373,-0.258573779,8.999804041,-8.748091603,1.396946565,-8.190839695,23.39
17:39.4,2.319981409,0.007182605,9.653421094,6.267175573,1.946564885,-8.404580153,23.43
17:39.6,2.29364519,0.083797058,9.770736975,-19.35877863,8.022900763,7.099236641,23.39
17:39.8,2.054225024,-0.758961926,9.074024292,6.244274809,9.511450382,1.992366412,23.39
17:40.1,0.773327136,-0.222660754,9.260772021,3.259541985,34.42748092,2.007633588,23.39
17:40.2,1.956062756,-0.416591089,4.929661218,31.54961832,49.72519084,59.35114504,23.41
17:40.4,-3.643974927,5.391742139,5.995080957,118.7328244,166.4351145,137.778626,23.41
17:40.6,-6.694187842,14.96376038,4.060566016,53.83206107,206,181.5419847,23.39
17:40.8,-5.619191296,9.169792358,2.300827795,19.39694656,44.66412214,31.10687023,23.39
17:41.0,-4.079719629,10.28549033,0.742202515,-3.572519084,-41.3740458,-20.97709924,23.41
17:41.2,-1.944091748,8.999804041,1.017535706,-0.671755725,-61.1221374,-44.60305344,23.45
17:41.4,-2.300827795,8.257601526,1.338358728,-5.625954198,-22.35877863,12.90839695,23.43
17:41.6,-4.115632654,9.651026892,3.689464758,-11.57251908,-94.78625954,-39.2519084,23.41
17:41.8,-4.458003491,8.453926062,3.150769385,-9.610687023,-113.389313,-85.6259542,23.41
17:42.0,-2.755726111,7.639897498,4.692635254,-15.60305344,-250.1374046,-136.8091603,23.43
17:42.2,-2.473210315,7.529764221,7.019799268,-55.85496183,-100.8167939,-106.5648855,23.39
17:42.4,1.063025537,5.571307263,8.327033374,-26.16030534,-62.07633588,-104.2748092,23.41
17:42.6,0.727837305,5.305550879,8.04691178,-13.96946565,-12.95419847,-31.53435115,23.39
17:42.9,0.600944617,4.431667273,8.394071021,-12.0610687,11.39694656,-16.21374046,23.41
17:43.1,0.995987891,4.704606262,7.872135059,-4.923664122,-8.366412214,-46.83206107,23.43
17:43.2,0.517147559,5.008669873,8.336610181,-11.49618321,-27.59541985,-51.59541985,23.39
17:43.4,0.794874951,4.19703551,8.815450513,-7.473282443,-36.99236641,-43.87022901,23.41
17:43.5,1.012747302,3.502717029,8.858546143,-11.19847328,-32.73282443,-20.08396947,23.43
17:43.8,1.122880579,3.394977954,9.28710824,-6.251908397,1.06870229,-3.007633588,23.41
17:44.0,0.785298145,3.775656018,8.597578162,0.541984733,26.93129771,-2.877862595,23.39
17:44.2,0.967257471,3.83551106,8.808267908,-1.305343511,16.48854962,6.396946565,23.41
17:44.4,1.484405029,3.861847278,9.174580762,3.633587786,-12.47328244,20.55725191,23.43
17:44.6,3.756502405,4.548983154,9.227253198,-29.55725191,92.72519084,-12.81679389,23.43
17:44.7,-1.517923853,3.687070557,8.499415894,2.320610687,0.572519084,6.885496183,23.43
17:44.8,-1.163582007,3.758896606,8.72447085,7.702290076,16.77099237,19.96183206,23.43
17:45.0,-1.65918175,3.84987627,8.669404211,7.93129771,-7.938931298,5.305343511,23.43
17:45.1,-1.666364355,3.213018628,6.531382129,35.16030534,-9.534351145,17.9389313,23.45
17:45.2,-0.51954176,3.967192151,7.034164478,58.97709924,2.86259542,-22.83969466,23.49
17:45.4,-0.356736047,7.948749512,9.952696301,61.20610687,-44.45038168,-6.687022901,23.45
17:45.5,-0.723048901,8.202534888,7.216123804,31.5648855,-28.54198473,-9.419847328,23.43
17:45.6,-1.565807886,7.91762489,5.181052393,22.78625954,-44.09923664,-23.8778626,23.45
17:45.8,-1.577778894,7.764395984,5.504269617,20.16793893,-28.04580153,-18.54961832,23.49
17:45.9,-0.730231506,8.157045056,5.255272644,-6,-8.305343511,-13.3129771,23.45
17:46.0,-1.781286035,7.80270321,5.432443567,-6.549618321,-5.20610687,-16.39694656,23.49
17:46.2,-1.106121167,7.682993127,5.664681128,-0.549618321,-5.366412214,5.442748092,23.45
17:46.3,-1.036689319,7.697358337,5.803544824,-7.404580153,0.709923664,-1.167938931,23.49
17:46.4,-1.582567297,7.977479932,6.148309863,-7.290076336,-5.030534351,8.488549618,23.51
17:46.6,-0.672770667,7.3549875,6.090849023,-3.564885496,-8.312977099,1.580152672,23.49
17:46.7,-0.550666382,7.582436658,6.533776331,3.786259542,-12.83206107,3.076335878,23.51
17:46.8,-0.893037219,8.022969763,5.947196924,-4.786259542,-1.755725191,2.58778626,23.51
17:46.9,-0.213083948,7.374141113,6.081272217,-0.022900763,7.458015267,-1.961832061,23.51
17:47.1,-0.945709656,7.232883215,5.691017346,0.580152672,-4.106870229,0.305343511,23.51
17:47.2,-0.004788403,8.686163623,5.463568188,-2.564885496,-4.778625954,1.061068702,23.45
17:47.3,-1.199495032,7.536946826,5.868188269,2.687022901,-4.580152672,0.015267176,23.51
17:47.5,-2.205059729,8.971073621,4.058171814,-2.839694656,4.389312977,-0.717557252,23.51
17:47.6,-1.426944189,8.243236316,6.277596753,12.19847328,-9.022900763,9.893129771,23.51
17:47.7,-0.957680664,7.603984473,6.160280872,-10.09160305,3.34351145,-18.36641221,23.49
17:47.9,-1.039083521,7.026981873,5.880159277,-19.16030534,13.88549618,7.816793893,23.49
17:48.0,-1.163582007,7.079654309,6.04296499,-9.778625954,4.969465649,14.13740458,23.49
17:48.2,-1.000776294,6.950367419,6.181828687,-5.778625954,18.66412214,6.954198473,23.51
17:48.3,-1.635239734,6.900089185,6.25844314,4.160305344,-6.351145038,7.435114504,23.51
17:48.4,-0.076614453,7.2113354,6.696582043,-5.694656489,-5,-42.55725191,23.51
17:48.6,-2.4516625,6.646303809,5.856217261,10.98473282,-39.03053435,4.65648855,23.51
17:48.7,-1.881842505,7.058106494,5.951985327,0.381679389,-10.71755725,4.022900763,23.51
17:48.8,-1.26892688,7.146691956,6.983886243,3.694656489,-24.97709924,-2.648854962,23.51
17:49.0,-0.787692346,6.979097839,6.196193896,-5.015267176,-14.3129771,-8.549618321,23.51
17:49.1,-0.837970581,6.811503723,6.7779849,-8.34351145,17.12977099,-8.801526718,23.51
17:49.2,-2.111685864,6.57687196,6.370970618,-25.26717557,50.78625954,-9.610687023,23.53
17:49.4,-1.879448303,6.303932971,6.411672046,-11.67175573,14.3740458,-1.122137405,23.53
17:49.5,-2.861070984,6.18661709,6.349422803,-10.38931298,-7.908396947,19.58015267,23.53
17:49.6,-2.116474268,6.126762048,6.622361792,-24.18320611,9.946564885,9.198473282,23.53
17:49.8,-2.918531824,4.915296008,6.651092212,7.984732824,1.488549618,2.564885496,23.53
